img_path,img_rel_path,looker,visAng,visAngCorr,trials_training.thisRepN,trials_training.thisTrialN,trials_training.thisN,trials_training.thisIndex,trials_exp.thisRepN,trials_exp.thisTrialN,trials_exp.thisN,trials_exp.thisIndex,inst_exp.started,inst_exp_continue.started,kb_inst_start.started,inst_exp.stopped,inst_train.started,inst_train_continue.started,key_inst_train.started,inst_train.stopped,train_noise.started,train_noise.stopped,img_training.started,judgement.started,answer,RT,looker_gender,instr_ex.started,instr_ex_cont.started,kb_inst_exp.started,instr_ex.stopped,exp_noise.started,exp_noise.stopped,img_exp.started,judgement_exp.started,text.started,participant,subject_gender,subject_age,date,expName,psychopyVersion,frameRate,
C:\Users\calti\Documents\Masterarbeit\PsychoPy\img_train\M02_06.jpg,img_train/M02_06.jpg,M02,6,,0,0,0,3,,,,,30.518795013427734,33.51830697059631,33.51830697059631,33.547762870788574,37.114075899124146,40.08898997306824,40.08898997306824,40.11720299720764,74.64099884033203,75.34575986862183,75.34575986862183,75.34575986862183,40,13.61562991142273,M,,,,,,,,,,1,w,27,2023-05-16_12h00.06.027,Gaze_Estimation_Final,2022.2.4,38.524669064563184,
C:\Users\calti\Documents\Masterarbeit\PsychoPy\img_train\M02_02.jpg,img_train/M02_02.jpg,M02,2,,0,1,1,1,,,,,,,,,,,,,88.80943584442139,89.47350096702576,89.47350096702576,89.47350096702576,14,3.757983922958374,M,,,,,,,,,,1,w,27,2023-05-16_12h00.06.027,Gaze_Estimation_Final,2022.2.4,38.524669064563184,
C:\Users\calti\Documents\Masterarbeit\PsychoPy\img_train\M02_02.jpg,img_train/M02_02.jpg,M02,2,,0,2,2,1,,,,,,,,,,,,,93.11982989311218,93.78144097328186,93.78144097328186,93.78144097328186,10,2.861788034439087,M,,,,,,,,,,1,w,27,2023-05-16_12h00.06.027,Gaze_Estimation_Final,2022.2.4,38.524669064563184,
C:\Users\calti\Documents\Masterarbeit\PsychoPy\img_train\M02_00.jpg,img_train/M02_00.jpg,M02,0,,0,3,3,0,,,,,,,,,,,,,96.53319883346558,97.19449090957642,97.19449090957642,97.19449090957642,7,3.580860137939453,M,,,,,,,,,,1,w,27,2023-05-16_12h00.06.027,Gaze_Estimation_Final,2022.2.4,38.524669064563184,
C:\Users\calti\Documents\Masterarbeit\PsychoPy\img_train\M02_04.jpg,img_train/M02_04.jpg,M02,4,,0,4,4,2,,,,,,,,,,,,,100.66599583625793,101.33122181892395,101.33122181892395,101.33122181892395,17,4.2334511280059814,M,,,,,,,,,,1,w,27,2023-05-16_12h00.06.027,Gaze_Estimation_Final,2022.2.4,38.524669064563184,
C:\Users\calti\Documents\Masterarbeit\PsychoPy\img_train\M02_00.jpg,img_train/M02_00.jpg,M02,0,,1,0,5,0,,,,,,,,,,,,,105.45373582839966,106.11838889122009,106.11838889122009,106.11838889122009,2,4.731887102127075,M,,,,,,,,,,1,w,27,2023-05-16_12h00.06.027,Gaze_Estimation_Final,2022.2.4,38.524669064563184,
C:\Users\calti\Documents\Masterarbeit\PsychoPy\img_train\M02_12.jpg,img_train/M02_12.jpg,M02,12,,1,1,6,4,,,,,,,,,,,,,110.73921990394592,111.40276098251343,111.40276098251343,111.40276098251343,69,5.192584037780762,M,,,,,,,,,,1,w,27,2023-05-16_12h00.06.027,Gaze_Estimation_Final,2022.2.4,38.524669064563184,
C:\Users\calti\Documents\Masterarbeit\PsychoPy\img_train\M02_12.jpg,img_train/M02_12.jpg,M02,12,,1,2,7,4,,,,,,,,,,,,,116.48541688919067,117.1493010520935,117.1493010520935,117.1493010520935,75,8.188526153564453,M,,,,,,,,,,1,w,27,2023-05-16_12h00.06.027,Gaze_Estimation_Final,2022.2.4,38.524669064563184,
C:\Users\calti\Documents\Masterarbeit\PsychoPy\img_train\M02_04.jpg,img_train/M02_04.jpg,M02,4,,1,3,8,2,,,,,,,,,,,,,125.22645497322083,125.89184999465942,125.89184999465942,125.89184999465942,38,5.115288019180298,M,,,,,,,,,,1,w,27,2023-05-16_12h00.06.027,Gaze_Estimation_Final,2022.2.4,38.524669064563184,
C:\Users\calti\Documents\Masterarbeit\PsychoPy\img_train\M02_06.jpg,img_train/M02_06.jpg,M02,6,,1,4,9,3,,,,,,,,,,,,,130.8962779045105,131.56104397773743,131.56104397773743,131.56104397773743,38,4.76537299156189,M,,,,,,,,,,1,w,27,2023-05-16_12h00.06.027,Gaze_Estimation_Final,2022.2.4,38.524669064563184,
C:\Users\calti\Documents\Masterarbeit\PsychoPy\img_exp\F10_02.jpg,img_exp/F10_02.jpg,F10,2,2.2,,,,,0,0,0,49,,,,,,,,,,,,,8,4.31390118598938,F,136.19178891181946,139.19093585014343,139.19093585014343,139.21854186058044,144.53588390350342,145.2658679485321,145.2658679485321,145.2658679485321,,1,w,27,2023-05-16_12h00.06.027,Gaze_Estimation_Final,2022.2.4,38.524669064563184,
C:\Users\calti\Documents\Masterarbeit\PsychoPy\img_exp\F01_12.jpg,img_exp/F01_12.jpg,F01,12,13.3,,,,,0,1,1,5,,,,,,,,,,,,,59,5.092442989349365,F,,,,,149.4045488834381,150.10445404052734,150.10445404052734,150.10445404052734,,1,w,27,2023-05-16_12h00.06.027,Gaze_Estimation_Final,2022.2.4,38.524669064563184,
C:\Users\calti\Documents\Masterarbeit\PsychoPy\img_exp\F23_06.jpg,img_exp/F23_06.jpg,F23,6,6.6,,,,,0,2,2,129,,,,,,,,,,,,,35,5.44579815864563,F,,,,,155.05144786834717,155.74187898635864,155.74187898635864,155.74187898635864,,1,w,27,2023-05-16_12h00.06.027,Gaze_Estimation_Final,2022.2.4,38.524669064563184,
C:\Users\calti\Documents\Masterarbeit\PsychoPy\img_exp\F16_00.jpg,img_exp/F16_00.jpg,F16,0,0,,,,,0,3,3,84,,,,,,,,,,,,,1,4.811300039291382,F,,,,,161.04977989196777,161.74026489257812,161.74026489257812,161.74026489257812,,1,w,27,2023-05-16_12h00.06.027,Gaze_Estimation_Final,2022.2.4,38.524669064563184,
C:\Users\calti\Documents\Masterarbeit\PsychoPy\img_exp\F10_02.jpg,img_exp/F10_02.jpg,F10,2,2.2,,,,,0,4,4,49,,,,,,,,,,,,,11,3.1906979084014893,F,,,,,166.41506695747375,167.09666991233826,167.09666991233826,167.09666991233826,,1,w,27,2023-05-16_12h00.06.027,Gaze_Estimation_Final,2022.2.4,38.524669064563184,
C:\Users\calti\Documents\Masterarbeit\PsychoPy\img_exp\M10_04.jpg,img_exp/M10_04.jpg,M10,4,4.4,,,,,0,5,5,212,,,,,,,,,,,,,28,3.9694008827209473,M,,,,,170.16115283966064,170.85610604286194,170.85610604286194,170.85610604286194,,1,w,27,2023-05-16_12h00.06.027,Gaze_Estimation_Final,2022.2.4,38.524669064563184,
C:\Users\calti\Documents\Masterarbeit\PsychoPy\img_exp\F08_04.jpg,img_exp/F08_04.jpg,F08,4,4.4,,,,,0,6,6,38,,,,,,,,,,,,,20,4.060685157775879,F,,,,,174.68468689918518,175.3843870162964,175.3843870162964,175.3843870162964,,1,w,27,2023-05-16_12h00.06.027,Gaze_Estimation_Final,2022.2.4,38.524669064563184,
C:\Users\calti\Documents\Masterarbeit\PsychoPy\img_exp\M07_04.jpg,img_exp/M07_04.jpg,M07,4,4.4,,,,,0,7,7,194,,,,,,,,,,,,,27,4.966098070144653,M,,,,,179.2988739013672,180.0059039592743,180.0059039592743,180.0059039592743,,1,w,27,2023-05-16_12h00.06.027,Gaze_Estimation_Final,2022.2.4,38.524669064563184,
C:\Users\calti\Documents\Masterarbeit\PsychoPy\img_exp\F07_06.jpg,img_exp/F07_06.jpg,F07,6,6.6,,,,,0,8,8,33,,,,,,,,,,,,,39,4.652881860733032,F,,,,,184.81970691680908,185.6638789176941,185.6638789176941,185.6638789176941,,1,w,27,2023-05-16_12h00.06.027,Gaze_Estimation_Final,2022.2.4,38.524669064563184,
C:\Users\calti\Documents\Masterarbeit\PsychoPy\img_exp\M05_00.jpg,img_exp/M05_00.jpg,M05,0,0,,,,,0,9,9,180,,,,,,,,,,,,,1,3.9759960174560547,M,,,,,190.02730894088745,190.77178692817688,190.77178692817688,190.77178692817688,,1,w,27,2023-05-16_12h00.06.027,Gaze_Estimation_Final,2022.2.4,38.524669064563184,
C:\Users\calti\Documents\Masterarbeit\PsychoPy\img_exp\M10_06.jpg,img_exp/M10_06.jpg,M10,6,6.6,,,,,0,10,10,213,,,,,,,,,,,,,50,9.035645961761475,M,,,,,194.5581488609314,195.23947882652283,195.23947882652283,195.23947882652283,,1,w,27,2023-05-16_12h00.06.027,Gaze_Estimation_Final,2022.2.4,38.524669064563184,
C:\Users\calti\Documents\Masterarbeit\PsychoPy\img_exp\F10_06.jpg,img_exp/F10_06.jpg,F10,6,6.6,,,,,0,11,11,51,,,,,,,,,,,,,41,4.420130014419556,F,,,,,204.1483850479126,204.84953594207764,204.84953594207764,204.84953594207764,,1,w,27,2023-05-16_12h00.06.027,Gaze_Estimation_Final,2022.2.4,38.524669064563184,
C:\Users\calti\Documents\Masterarbeit\PsychoPy\img_exp\F03_04.jpg,img_exp/F03_04.jpg,F03,4,4.4,,,,,0,12,12,14,,,,,,,,,,,,,29,6.386166095733643,F,,,,,209.12421584129333,209.81420588493347,209.81420588493347,209.81420588493347,,1,w,27,2023-05-16_12h00.06.027,Gaze_Estimation_Final,2022.2.4,38.524669064563184,
C:\Users\calti\Documents\Masterarbeit\PsychoPy\img_exp\M06_04.jpg,img_exp/M06_04.jpg,M06,4,4.4,,,,,0,13,13,188,,,,,,,,,,,,,30,6.07627010345459,M,,,,,216.0655059814453,216.76362204551697,216.76362204551697,216.76362204551697,,1,w,27,2023-05-16_12h00.06.027,Gaze_Estimation_Final,2022.2.4,38.524669064563184,
C:\Users\calti\Documents\Masterarbeit\PsychoPy\img_exp\F19_04.jpg,img_exp/F19_04.jpg,F19,4,4.4,,,,,0,14,14,104,,,,,,,,,,,,,16,3.7737629413604736,F,,,,,222.6974380016327,223.37951397895813,223.37951397895813,223.37951397895813,,1,w,27,2023-05-16_12h00.06.027,Gaze_Estimation_Final,2022.2.4,38.524669064563184,
C:\Users\calti\Documents\Masterarbeit\PsychoPy\img_exp\M06_06.jpg,img_exp/M06_06.jpg,M06,6,6.6,,,,,0,15,15,189,,,,,,,,,,,,,23,5.0288169384002686,M,,,,,227.02474093437195,227.7066569328308,227.7066569328308,227.7066569328308,,1,w,27,2023-05-16_12h00.06.027,Gaze_Estimation_Final,2022.2.4,38.524669064563184,
C:\Users\calti\Documents\Masterarbeit\PsychoPy\img_exp\F26_08.jpg,img_exp/F26_08.jpg,F26,8,8.8,,,,,0,16,16,148,,,,,,,,,,,,,51,4.858283996582031,F,,,,,232.60908699035645,233.2998378276825,233.2998378276825,233.2998378276825,,1,w,27,2023-05-16_12h00.06.027,Gaze_Estimation_Final,2022.2.4,38.524669064563184,
C:\Users\calti\Documents\Masterarbeit\PsychoPy\img_exp\F26_02.jpg,img_exp/F26_02.jpg,F26,2,2.2,,,,,0,17,17,145,,,,,,,,,,,,,1,1.668382167816162,F,,,,,238.0225248336792,238.7068269252777,238.7068269252777,238.7068269252777,,1,w,27,2023-05-16_12h00.06.027,Gaze_Estimation_Final,2022.2.4,38.524669064563184,
C:\Users\calti\Documents\Masterarbeit\PsychoPy\img_exp\F05_06.jpg,img_exp/F05_06.jpg,F05,6,6.6,,,,,0,18,18,27,,,,,,,,,,,,,29,2.8006069660186768,F,,,,,240.24367594718933,240.94057703018188,240.94057703018188,240.94057703018188,,1,w,27,2023-05-16_12h00.06.027,Gaze_Estimation_Final,2022.2.4,38.524669064563184,
C:\Users\calti\Documents\Masterarbeit\PsychoPy\img_exp\F22_00.jpg,img_exp/F22_00.jpg,F22,0,0,,,,,0,19,19,120,,,,,,,,,,,,,1,1.6275849342346191,F,,,,,243.5994839668274,244.2913110256195,244.2913110256195,244.2913110256195,,1,w,27,2023-05-16_12h00.06.027,Gaze_Estimation_Final,2022.2.4,38.524669064563184,
C:\Users\calti\Documents\Masterarbeit\PsychoPy\img_exp\M12_02.jpg,img_exp/M12_02.jpg,M12,2,2.2,,,,,0,20,20,223,,,,,,,,,,,,,1,1.352687120437622,M,,,,,245.7818329334259,246.46694588661194,246.46694588661194,246.46694588661194,,1,w,27,2023-05-16_12h00.06.027,Gaze_Estimation_Final,2022.2.4,38.524669064563184,
C:\Users\calti\Documents\Masterarbeit\PsychoPy\img_exp\F22_06.jpg,img_exp/F22_06.jpg,F22,6,6.6,,,,,0,21,21,123,,,,,,,,,,,,,31,3.7386560440063477,F,,,,,247.69032788276672,248.38361883163452,248.38361883163452,248.38361883163452,,1,w,27,2023-05-16_12h00.06.027,Gaze_Estimation_Final,2022.2.4,38.524669064563184,
C:\Users\calti\Documents\Masterarbeit\PsychoPy\img_exp\M11_08.jpg,img_exp/M11_08.jpg,M11,8,8.8,,,,,0,22,22,220,,,,,,,,,,,,,53,5.769223928451538,M,,,,,251.98435401916504,252.67766785621643,252.67766785621643,252.67766785621643,,1,w,27,2023-05-16_12h00.06.027,Gaze_Estimation_Final,2022.2.4,38.524669064563184,
C:\Users\calti\Documents\Masterarbeit\PsychoPy\img_exp\F08_04.jpg,img_exp/F08_04.jpg,F08,4,4.4,,,,,0,23,23,38,,,,,,,,,,,,,11,3.502357006072998,F,,,,,258.30634689331055,258.9870228767395,258.9870228767395,258.9870228767395,,1,w,27,2023-05-16_12h00.06.027,Gaze_Estimation_Final,2022.2.4,38.524669064563184,
C:\Users\calti\Documents\Masterarbeit\PsychoPy\img_exp\F26_08.jpg,img_exp/F26_08.jpg,F26,8,8.8,,,,,0,24,24,148,,,,,,,,,,,,,41,6.731829881668091,F,,,,,262.36211705207825,263.04099893569946,263.04099893569946,263.04099893569946,,1,w,27,2023-05-16_12h00.06.027,Gaze_Estimation_Final,2022.2.4,38.524669064563184,
C:\Users\calti\Documents\Masterarbeit\PsychoPy\img_exp\F23_00.jpg,img_exp/F23_00.jpg,F23,0,0,,,,,0,25,25,126,,,,,,,,,,,,,1,1.3124628067016602,F,,,,,269.64804196357727,270.3387608528137,270.3387608528137,270.3387608528137,,1,w,27,2023-05-16_12h00.06.027,Gaze_Estimation_Final,2022.2.4,38.524669064563184,
C:\Users\calti\Documents\Masterarbeit\PsychoPy\img_exp\F22_06.jpg,img_exp/F22_06.jpg,F22,6,6.6,,,,,0,26,26,123,,,,,,,,,,,,,29,3.097445011138916,F,,,,,271.51731395721436,272.1975769996643,272.1975769996643,272.1975769996643,,1,w,27,2023-05-16_12h00.06.027,Gaze_Estimation_Final,2022.2.4,38.524669064563184,
C:\Users\calti\Documents\Masterarbeit\PsychoPy\img_exp\F26_00.jpg,img_exp/F26_00.jpg,F26,0,0,,,,,0,27,27,144,,,,,,,,,,,,,1,1.586695909500122,F,,,,,275.1682069301605,275.863303899765,275.863303899765,275.863303899765,,1,w,27,2023-05-16_12h00.06.027,Gaze_Estimation_Final,2022.2.4,38.524669064563184,
C:\Users\calti\Documents\Masterarbeit\PsychoPy\img_exp\F25_04.jpg,img_exp/F25_04.jpg,F25,4,4.4,,,,,0,28,28,140,,,,,,,,,,,,,33,2.6645278930664062,F,,,,,277.3086779117584,278.00266790390015,278.00266790390015,278.00266790390015,,1,w,27,2023-05-16_12h00.06.027,Gaze_Estimation_Final,2022.2.4,38.524669064563184,
C:\Users\calti\Documents\Masterarbeit\PsychoPy\img_exp\M12_08.jpg,img_exp/M12_08.jpg,M12,8,8.8,,,,,0,29,29,226,,,,,,,,,,,,,48,3.818448066711426,M,,,,,280.53034591674805,281.2555708885193,281.2555708885193,281.2555708885193,,1,w,27,2023-05-16_12h00.06.027,Gaze_Estimation_Final,2022.2.4,38.524669064563184,
C:\Users\calti\Documents\Masterarbeit\PsychoPy\img_exp\M03_12.jpg,img_exp/M03_12.jpg,M03,12,13.3,,,,,0,30,30,173,,,,,,,,,,,,,80,4.945326089859009,M,,,,,284.9034779071808,285.5908508300781,285.5908508300781,285.5908508300781,,1,w,27,2023-05-16_12h00.06.027,Gaze_Estimation_Final,2022.2.4,38.524669064563184,
C:\Users\calti\Documents\Masterarbeit\PsychoPy\img_exp\F18_12.jpg,img_exp/F18_12.jpg,F18,12,13.3,,,,,0,31,31,101,,,,,,,,,,,,,86,7.052601099014282,F,,,,,290.4043400287628,291.09446597099304,291.09446597099304,291.09446597099304,,1,w,27,2023-05-16_12h00.06.027,Gaze_Estimation_Final,2022.2.4,38.524669064563184,
C:\Users\calti\Documents\Masterarbeit\PsychoPy\img_exp\M14_06.jpg,img_exp/M14_06.jpg,M14,6,6.6,,,,,0,32,32,237,,,,,,,,,,,,,74,5.671528100967407,M,,,,,298.0127708911896,298.70608401298523,298.70608401298523,298.70608401298523,,1,w,27,2023-05-16_12h00.06.027,Gaze_Estimation_Final,2022.2.4,38.524669064563184,
C:\Users\calti\Documents\Masterarbeit\PsychoPy\img_exp\M14_08.jpg,img_exp/M14_08.jpg,M14,8,8.8,,,,,0,33,33,238,,,,,,,,,,,,,74,2.0696561336517334,M,,,,,304.241418838501,304.9221520423889,304.9221520423889,304.9221520423889,,1,w,27,2023-05-16_12h00.06.027,Gaze_Estimation_Final,2022.2.4,38.524669064563184,
C:\Users\calti\Documents\Masterarbeit\PsychoPy\img_exp\F07_06.jpg,img_exp/F07_06.jpg,F07,6,6.6,,,,,0,34,34,33,,,,,,,,,,,,,42,3.953080892562866,F,,,,,306.866721868515,307.54873394966125,307.54873394966125,307.54873394966125,,1,w,27,2023-05-16_12h00.06.027,Gaze_Estimation_Final,2022.2.4,38.524669064563184,
C:\Users\calti\Documents\Masterarbeit\PsychoPy\img_exp\F25_12.jpg,img_exp/F25_12.jpg,F25,12,13.3,,,,,0,35,35,143,,,,,,,,,,,,,71,3.47125506401062,F,,,,,311.37541699409485,312.06847882270813,312.06847882270813,312.06847882270813,,1,w,27,2023-05-16_12h00.06.027,Gaze_Estimation_Final,2022.2.4,38.524669064563184,
C:\Users\calti\Documents\Masterarbeit\PsychoPy\img_exp\F07_12.jpg,img_exp/F07_12.jpg,F07,12,13.3,,,,,0,36,36,35,,,,,,,,,,,,,71,2.2612149715423584,F,,,,,315.4029519557953,316.09486198425293,316.09486198425293,316.09486198425293,,1,w,27,2023-05-16_12h00.06.027,Gaze_Estimation_Final,2022.2.4,38.524669064563184,
C:\Users\calti\Documents\Masterarbeit\PsychoPy\img_exp\F13_00.jpg,img_exp/F13_00.jpg,F13,0,0,,,,,0,37,37,66,,,,,,,,,,,,,1,3.429651975631714,F,,,,,318.22021102905273,318.91180300712585,318.91180300712585,318.91180300712585,,1,w,27,2023-05-16_12h00.06.027,Gaze_Estimation_Final,2022.2.4,38.524669064563184,
C:\Users\calti\Documents\Masterarbeit\PsychoPy\img_exp\F28_00.jpg,img_exp/F28_00.jpg,F28,0,0,,,,,0,38,38,150,,,,,,,,,,,,,1,9.253992795944214,F,,,,,322.20543694496155,322.9001739025116,322.9001739025116,322.9001739025116,,1,w,27,2023-05-16_12h00.06.027,Gaze_Estimation_Final,2022.2.4,38.524669064563184,
C:\Users\calti\Documents\Masterarbeit\PsychoPy\img_exp\M06_04.jpg,img_exp/M06_04.jpg,M06,4,4.4,,,,,0,39,39,188,,,,,,,,,,,,,28,4.890856981277466,M,,,,,332.0142779350281,332.694641828537,332.694641828537,332.694641828537,,1,w,27,2023-05-16_12h00.06.027,Gaze_Estimation_Final,2022.2.4,38.524669064563184,
C:\Users\calti\Documents\Masterarbeit\PsychoPy\img_exp\F28_04.jpg,img_exp/F28_04.jpg,F28,4,4.4,,,,,0,40,40,152,,,,,,,,,,,,,1,2.6089670658111572,F,,,,,337.45972299575806,338.1436619758606,338.1436619758606,338.1436619758606,,1,w,27,2023-05-16_12h00.06.027,Gaze_Estimation_Final,2022.2.4,38.524669064563184,
C:\Users\calti\Documents\Masterarbeit\PsychoPy\img_exp\M12_08.jpg,img_exp/M12_08.jpg,M12,8,8.8,,,,,0,41,41,226,,,,,,,,,,,,,45,3.593136787414551,M,,,,,340.62400698661804,341.3025839328766,341.3025839328766,341.3025839328766,,1,w,27,2023-05-16_12h00.06.027,Gaze_Estimation_Final,2022.2.4,38.524669064563184,
C:\Users\calti\Documents\Masterarbeit\PsychoPy\img_exp\F04_08.jpg,img_exp/F04_08.jpg,F04,8,8.8,,,,,0,42,42,22,,,,,,,,,,,,,45,5.854146957397461,F,,,,,344.77021384239197,345.46546697616577,345.46546697616577,345.46546697616577,,1,w,27,2023-05-16_12h00.06.027,Gaze_Estimation_Final,2022.2.4,38.524669064563184,
C:\Users\calti\Documents\Masterarbeit\PsychoPy\img_exp\F21_02.jpg,img_exp/F21_02.jpg,F21,2,2.2,,,,,0,43,43,115,,,,,,,,,,,,,1,1.4543380737304688,F,,,,,351.17898893356323,351.8762128353119,351.8762128353119,351.8762128353119,,1,w,27,2023-05-16_12h00.06.027,Gaze_Estimation_Final,2022.2.4,38.524669064563184,
C:\Users\calti\Documents\Masterarbeit\PsychoPy\img_exp\M08_08.jpg,img_exp/M08_08.jpg,M08,8,8.8,,,,,0,44,44,202,,,,,,,,,,,,,49,4.867192029953003,M,,,,,353.1882178783417,353.8792510032654,353.8792510032654,353.8792510032654,,1,w,27,2023-05-16_12h00.06.027,Gaze_Estimation_Final,2022.2.4,38.524669064563184,
C:\Users\calti\Documents\Masterarbeit\PsychoPy\img_exp\F14_00.jpg,img_exp/F14_00.jpg,F14,0,0,,,,,0,45,45,72,,,,,,,,,,,,,1,1.3212029933929443,F,,,,,358.60958886146545,359.30672788619995,359.30672788619995,359.30672788619995,,1,w,27,2023-05-16_12h00.06.027,Gaze_Estimation_Final,2022.2.4,38.524669064563184,
C:\Users\calti\Documents\Masterarbeit\PsychoPy\img_exp\F12_08.jpg,img_exp/F12_08.jpg,F12,8,8.8,,,,,0,46,46,64,,,,,,,,,,,,,47,10.689543962478638,F,,,,,360.48411083221436,361.1772618293762,361.1772618293762,361.1772618293762,,1,w,27,2023-05-16_12h00.06.027,Gaze_Estimation_Final,2022.2.4,38.524669064563184,
C:\Users\calti\Documents\Masterarbeit\PsychoPy\img_exp\F24_04.jpg,img_exp/F24_04.jpg,F24,4,4.4,,,,,0,47,47,134,,,,,,,,,,,,,8,5.219773054122925,F,,,,,371.72891902923584,372.42264103889465,372.42264103889465,372.42264103889465,,1,w,27,2023-05-16_12h00.06.027,Gaze_Estimation_Final,2022.2.4,38.524669064563184,
C:\Users\calti\Documents\Masterarbeit\PsychoPy\img_exp\F14_00.jpg,img_exp/F14_00.jpg,F14,0,0,,,,,0,48,48,72,,,,,,,,,,,,,1,1.9316589832305908,F,,,,,377.50496888160706,378.1864159107208,378.1864159107208,378.1864159107208,,1,w,27,2023-05-16_12h00.06.027,Gaze_Estimation_Final,2022.2.4,38.524669064563184,
C:\Users\calti\Documents\Masterarbeit\PsychoPy\img_exp\F17_06.jpg,img_exp/F17_06.jpg,F17,6,6.6,,,,,0,49,49,93,,,,,,,,,,,,,31,3.911273956298828,F,,,,,379.992595911026,380.6767508983612,380.6767508983612,380.6767508983612,,1,w,27,2023-05-16_12h00.06.027,Gaze_Estimation_Final,2022.2.4,38.524669064563184,
C:\Users\calti\Documents\Masterarbeit\PsychoPy\img_exp\F04_12.jpg,img_exp/F04_12.jpg,F04,12,13.3,,,,,0,50,50,23,,,,,,,,,,,,,76,5.7104620933532715,F,,,,,384.4597499370575,385.141263961792,385.141263961792,385.141263961792,,1,w,27,2023-05-16_12h00.06.027,Gaze_Estimation_Final,2022.2.4,38.524669064563184,
C:\Users\calti\Documents\Masterarbeit\PsychoPy\img_exp\F25_12.jpg,img_exp/F25_12.jpg,F25,12,13.3,,,,,0,51,51,143,,,,,,,,,,,,,74,5.854107141494751,F,,,,,390.72461795806885,391.4084219932556,391.4084219932556,391.4084219932556,,1,w,27,2023-05-16_12h00.06.027,Gaze_Estimation_Final,2022.2.4,38.524669064563184,
C:\Users\calti\Documents\Masterarbeit\PsychoPy\img_exp\F02_06.jpg,img_exp/F02_06.jpg,F02,6,6.6,,,,,0,52,52,9,,,,,,,,,,,,,52,3.8306031227111816,F,,,,,397.13420581817627,397.8286499977112,397.8286499977112,397.8286499977112,,1,w,27,2023-05-16_12h00.06.027,Gaze_Estimation_Final,2022.2.4,38.524669064563184,
C:\Users\calti\Documents\Masterarbeit\PsychoPy\img_exp\F16_08.jpg,img_exp/F16_08.jpg,F16,8,8.8,,,,,0,53,53,88,,,,,,,,,,,,,55,8.188958168029785,F,,,,,401.520299911499,402.2154359817505,402.2154359817505,402.2154359817505,,1,w,27,2023-05-16_12h00.06.027,Gaze_Estimation_Final,2022.2.4,38.524669064563184,
C:\Users\calti\Documents\Masterarbeit\PsychoPy\img_exp\F23_02.jpg,img_exp/F23_02.jpg,F23,2,2.2,,,,,0,54,54,127,,,,,,,,,,,,,1,1.75724196434021,F,,,,,410.26338601112366,410.94946789741516,410.94946789741516,410.94946789741516,,1,w,27,2023-05-16_12h00.06.027,Gaze_Estimation_Final,2022.2.4,38.524669064563184,
C:\Users\calti\Documents\Masterarbeit\PsychoPy\img_exp\F02_04.jpg,img_exp/F02_04.jpg,F02,4,4.4,,,,,0,55,55,8,,,,,,,,,,,,,35,7.052817106246948,F,,,,,412.5739629268646,413.2620348930359,413.2620348930359,413.2620348930359,,1,w,27,2023-05-16_12h00.06.027,Gaze_Estimation_Final,2022.2.4,38.524669064563184,
C:\Users\calti\Documents\Masterarbeit\PsychoPy\img_exp\F15_06.jpg,img_exp/F15_06.jpg,F15,6,6.6,,,,,0,56,56,81,,,,,,,,,,,,,54,3.526055097579956,F,,,,,420.18086886405945,420.8747549057007,420.8747549057007,420.8747549057007,,1,w,27,2023-05-16_12h00.06.027,Gaze_Estimation_Final,2022.2.4,38.524669064563184,
C:\Users\calti\Documents\Masterarbeit\PsychoPy\img_exp\F23_08.jpg,img_exp/F23_08.jpg,F23,8,8.8,,,,,0,57,57,130,,,,,,,,,,,,,41,5.625247001647949,F,,,,,424.26136088371277,424.95530796051025,424.95530796051025,424.95530796051025,,1,w,27,2023-05-16_12h00.06.027,Gaze_Estimation_Final,2022.2.4,38.524669064563184,
C:\Users\calti\Documents\Masterarbeit\PsychoPy\img_exp\M04_02.jpg,img_exp/M04_02.jpg,M04,2,2.2,,,,,0,58,58,175,,,,,,,,,,,,,1,1.5008277893066406,M,,,,,430.44028091430664,431.13862705230713,431.13862705230713,431.13862705230713,,1,w,27,2023-05-16_12h00.06.027,Gaze_Estimation_Final,2022.2.4,38.524669064563184,
C:\Users\calti\Documents\Masterarbeit\PsychoPy\img_exp\M14_02.jpg,img_exp/M14_02.jpg,M14,2,2.2,,,,,0,59,59,235,,,,,,,,,,,,,5,2.657794952392578,M,,,,,432.49712800979614,433.1842198371887,433.1842198371887,433.1842198371887,,1,w,27,2023-05-16_12h00.06.027,Gaze_Estimation_Final,2022.2.4,38.524669064563184,
C:\Users\calti\Documents\Masterarbeit\PsychoPy\img_exp\M13_06.jpg,img_exp/M13_06.jpg,M13,6,6.6,,,,,0,60,60,231,,,,,,,,,,,,,49,4.544910907745361,M,,,,,435.7097170352936,436.39707589149475,436.39707589149475,436.39707589149475,,1,w,27,2023-05-16_12h00.06.027,Gaze_Estimation_Final,2022.2.4,38.524669064563184,
C:\Users\calti\Documents\Masterarbeit\PsychoPy\img_exp\F22_12.jpg,img_exp/F22_12.jpg,F22,12,13.3,,,,,0,61,61,125,,,,,,,,,,,,,87,5.868602991104126,F,,,,,440.81039094924927,441.5174288749695,441.5174288749695,441.5174288749695,,1,w,27,2023-05-16_12h00.06.027,Gaze_Estimation_Final,2022.2.4,38.524669064563184,
C:\Users\calti\Documents\Masterarbeit\PsychoPy\img_exp\F19_00.jpg,img_exp/F19_00.jpg,F19,0,0,,,,,0,62,62,102,,,,,,,,,,,,,1,1.630540132522583,F,,,,,447.2334098815918,447.9245798587799,447.9245798587799,447.9245798587799,,1,w,27,2023-05-16_12h00.06.027,Gaze_Estimation_Final,2022.2.4,38.524669064563184,
C:\Users\calti\Documents\Masterarbeit\PsychoPy\img_exp\F21_06.jpg,img_exp/F21_06.jpg,F21,6,6.6,,,,,0,63,63,117,,,,,,,,,,,,,53,7.5686280727386475,F,,,,,449.4167938232422,450.1046438217163,450.1046438217163,450.1046438217163,,1,w,27,2023-05-16_12h00.06.027,Gaze_Estimation_Final,2022.2.4,38.524669064563184,
C:\Users\calti\Documents\Masterarbeit\PsychoPy\img_exp\F07_02.jpg,img_exp/F07_02.jpg,F07,2,2.2,,,,,0,64,64,31,,,,,,,,,,,,,1,1.3565728664398193,F,,,,,457.541846036911,458.22999691963196,458.22999691963196,458.22999691963196,,1,w,27,2023-05-16_12h00.06.027,Gaze_Estimation_Final,2022.2.4,38.524669064563184,
C:\Users\calti\Documents\Masterarbeit\PsychoPy\img_exp\M03_12.jpg,img_exp/M03_12.jpg,M03,12,13.3,,,,,0,65,65,173,,,,,,,,,,,,,46,5.194772958755493,M,,,,,459.45279598236084,460.38721203804016,460.38721203804016,460.38721203804016,,1,w,27,2023-05-16_12h00.06.027,Gaze_Estimation_Final,2022.2.4,38.524669064563184,
C:\Users\calti\Documents\Masterarbeit\PsychoPy\img_exp\F04_08.jpg,img_exp/F04_08.jpg,F04,8,8.8,,,,,0,66,66,22,,,,,,,,,,,,,42,3.503777027130127,F,,,,,465.20159792900085,465.87973499298096,465.87973499298096,465.87973499298096,,1,w,27,2023-05-16_12h00.06.027,Gaze_Estimation_Final,2022.2.4,38.524669064563184,
C:\Users\calti\Documents\Masterarbeit\PsychoPy\img_exp\F04_06.jpg,img_exp/F04_06.jpg,F04,6,6.6,,,,,0,67,67,21,,,,,,,,,,,,,42,1.4561798572540283,F,,,,,469.2584300041199,469.9525430202484,469.9525430202484,469.9525430202484,,1,w,27,2023-05-16_12h00.06.027,Gaze_Estimation_Final,2022.2.4,38.524669064563184,
C:\Users\calti\Documents\Masterarbeit\PsychoPy\img_exp\F02_12.jpg,img_exp/F02_12.jpg,F02,12,13.3,,,,,0,68,68,11,,,,,,,,,,,,,65,5.0600080490112305,F,,,,,471.2685658931732,471.9624378681183,471.9624378681183,471.9624378681183,,1,w,27,2023-05-16_12h00.06.027,Gaze_Estimation_Final,2022.2.4,38.524669064563184,
C:\Users\calti\Documents\Masterarbeit\PsychoPy\img_exp\F22_06.jpg,img_exp/F22_06.jpg,F22,6,6.6,,,,,0,69,69,123,,,,,,,,,,,,,55,2.295869827270508,F,,,,,476.88299202919006,477.5649700164795,477.5649700164795,477.5649700164795,,1,w,27,2023-05-16_12h00.06.027,Gaze_Estimation_Final,2022.2.4,38.524669064563184,
C:\Users\calti\Documents\Masterarbeit\PsychoPy\img_exp\M10_02.jpg,img_exp/M10_02.jpg,M10,2,2.2,,,,,0,70,70,211,,,,,,,,,,,,,1,1.6813969612121582,M,,,,,479.73345589637756,480.4323539733887,480.4323539733887,480.4323539733887,,1,w,27,2023-05-16_12h00.06.027,Gaze_Estimation_Final,2022.2.4,38.524669064563184,
C:\Users\calti\Documents\Masterarbeit\PsychoPy\img_exp\F07_02.jpg,img_exp/F07_02.jpg,F07,2,2.2,,,,,0,71,71,31,,,,,,,,,,,,,1,1.6185121536254883,F,,,,,481.9694378376007,482.64947986602783,482.64947986602783,482.64947986602783,,1,w,27,2023-05-16_12h00.06.027,Gaze_Estimation_Final,2022.2.4,38.524669064563184,
C:\Users\calti\Documents\Masterarbeit\PsychoPy\img_exp\F07_04.jpg,img_exp/F07_04.jpg,F07,4,4.4,,,,,0,72,72,32,,,,,,,,,,,,,5,2.306999921798706,F,,,,,484.14129090309143,484.82985401153564,484.82985401153564,484.82985401153564,,1,w,27,2023-05-16_12h00.06.027,Gaze_Estimation_Final,2022.2.4,38.524669064563184,
C:\Users\calti\Documents\Masterarbeit\PsychoPy\img_exp\F28_06.jpg,img_exp/F28_06.jpg,F28,6,6.6,,,,,0,73,73,153,,,,,,,,,,,,,13,2.713139057159424,F,,,,,487.00166392326355,487.69729685783386,487.69729685783386,487.69729685783386,,1,w,27,2023-05-16_12h00.06.027,Gaze_Estimation_Final,2022.2.4,38.524669064563184,
C:\Users\calti\Documents\Masterarbeit\PsychoPy\img_exp\F28_12.jpg,img_exp/F28_12.jpg,F28,12,13.3,,,,,0,74,74,155,,,,,,,,,,,,,21,3.2901618480682373,F,,,,,490.2701349258423,490.9548089504242,490.9548089504242,490.9548089504242,,1,w,27,2023-05-16_12h00.06.027,Gaze_Estimation_Final,2022.2.4,38.524669064563184,
C:\Users\calti\Documents\Masterarbeit\PsychoPy\img_exp\F25_08.jpg,img_exp/F25_08.jpg,F25,8,8.8,,,,,0,75,75,142,,,,,,,,,,,,,25,8.513177871704102,F,,,,,494.1166808605194,494.812460899353,494.812460899353,494.812460899353,,1,w,27,2023-05-16_12h00.06.027,Gaze_Estimation_Final,2022.2.4,38.524669064563184,
C:\Users\calti\Documents\Masterarbeit\PsychoPy\img_exp\F23_04.jpg,img_exp/F23_04.jpg,F23,4,4.4,,,,,0,76,76,128,,,,,,,,,,,,,6,4.158667802810669,F,,,,,503.18581199645996,503.8919909000397,503.8919909000397,503.8919909000397,,1,w,27,2023-05-16_12h00.06.027,Gaze_Estimation_Final,2022.2.4,38.524669064563184,
C:\Users\calti\Documents\Masterarbeit\PsychoPy\img_exp\F12_06.jpg,img_exp/F12_06.jpg,F12,6,6.6,,,,,0,77,77,63,,,,,,,,,,,,,42,5.176340103149414,F,,,,,507.9009029865265,508.5963819026947,508.5963819026947,508.5963819026947,,1,w,27,2023-05-16_12h00.06.027,Gaze_Estimation_Final,2022.2.4,38.524669064563184,
C:\Users\calti\Documents\Masterarbeit\PsychoPy\img_exp\F22_08.jpg,img_exp/F22_08.jpg,F22,8,8.8,,,,,0,78,78,124,,,,,,,,,,,,,61,3.8790969848632812,F,,,,,513.632894039154,514.3307709693909,514.3307709693909,514.3307709693909,,1,w,27,2023-05-16_12h00.06.027,Gaze_Estimation_Final,2022.2.4,38.524669064563184,
C:\Users\calti\Documents\Masterarbeit\PsychoPy\img_exp\M11_04.jpg,img_exp/M11_04.jpg,M11,4,4.4,,,,,0,79,79,218,,,,,,,,,,,,,33,3.2975189685821533,M,,,,,518.06796002388,518.766028881073,518.766028881073,518.766028881073,,1,w,27,2023-05-16_12h00.06.027,Gaze_Estimation_Final,2022.2.4,38.524669064563184,
C:\Users\calti\Documents\Masterarbeit\PsychoPy\img_exp\F14_06.jpg,img_exp/F14_06.jpg,F14,6,6.6,,,,,0,80,80,75,,,,,,,,,,,,,42,4.3669750690460205,F,,,,,521.9198758602142,522.6130928993225,522.6130928993225,522.6130928993225,,1,w,27,2023-05-16_12h00.06.027,Gaze_Estimation_Final,2022.2.4,38.524669064563184,
C:\Users\calti\Documents\Masterarbeit\PsychoPy\img_exp\F09_00.jpg,img_exp/F09_00.jpg,F09,0,0,,,,,0,81,81,42,,,,,,,,,,,,,1,1.8506410121917725,F,,,,,526.8424718379974,527.533066034317,527.533066034317,527.533066034317,,1,w,27,2023-05-16_12h00.06.027,Gaze_Estimation_Final,2022.2.4,38.524669064563184,
C:\Users\calti\Documents\Masterarbeit\PsychoPy\img_exp\F08_06.jpg,img_exp/F08_06.jpg,F08,6,6.6,,,,,0,82,82,39,,,,,,,,,,,,,31,6.964504957199097,F,,,,,529.2471928596497,529.9362769126892,529.9362769126892,529.9362769126892,,1,w,27,2023-05-16_12h00.06.027,Gaze_Estimation_Final,2022.2.4,38.524669064563184,
C:\Users\calti\Documents\Masterarbeit\PsychoPy\img_exp\M10_00.jpg,img_exp/M10_00.jpg,M10,0,0,,,,,0,83,83,210,,,,,,,,,,,,,1,2.3897581100463867,M,,,,,536.7638759613037,537.4574899673462,537.4574899673462,537.4574899673462,,1,w,27,2023-05-16_12h00.06.027,Gaze_Estimation_Final,2022.2.4,38.524669064563184,
C:\Users\calti\Documents\Masterarbeit\PsychoPy\img_exp\M07_02.jpg,img_exp/M07_02.jpg,M07,2,2.2,,,,,0,84,84,193,,,,,,,,,,,,,1,5.663334131240845,M,,,,,539.7100269794464,540.4001250267029,540.4001250267029,540.4001250267029,,1,w,27,2023-05-16_12h00.06.027,Gaze_Estimation_Final,2022.2.4,38.524669064563184,
C:\Users\calti\Documents\Masterarbeit\PsychoPy\img_exp\F13_08.jpg,img_exp/F13_08.jpg,F13,8,8.8,,,,,0,85,85,70,,,,,,,,,,,,,12,3.7895290851593018,F,,,,,545.9294898509979,546.6218018531799,546.6218018531799,546.6218018531799,,1,w,27,2023-05-16_12h00.06.027,Gaze_Estimation_Final,2022.2.4,38.524669064563184,
C:\Users\calti\Documents\Masterarbeit\PsychoPy\img_exp\M01_08.jpg,img_exp/M01_08.jpg,M01,8,8.8,,,,,0,86,86,160,,,,,,,,,,,,,35,2.484184980392456,M,,,,,550.2743489742279,550.965497970581,550.965497970581,550.965497970581,,1,w,27,2023-05-16_12h00.06.027,Gaze_Estimation_Final,2022.2.4,38.524669064563184,
C:\Users\calti\Documents\Masterarbeit\PsychoPy\img_exp\M09_00.jpg,img_exp/M09_00.jpg,M09,0,0,,,,,0,87,87,204,,,,,,,,,,,,,1,4.830020904541016,M,,,,,553.3128750324249,554.0099339485168,554.0099339485168,554.0099339485168,,1,w,27,2023-05-16_12h00.06.027,Gaze_Estimation_Final,2022.2.4,38.524669064563184,
C:\Users\calti\Documents\Masterarbeit\PsychoPy\img_exp\M02_00.jpg,img_exp/M02_00.jpg,M02,0,0,,,,,0,88,88,162,,,,,,,,,,,,,1,1.183061122894287,M,,,,,558.697919845581,559.3925468921661,559.3925468921661,559.3925468921661,,1,w,27,2023-05-16_12h00.06.027,Gaze_Estimation_Final,2022.2.4,38.524669064563184,
C:\Users\calti\Documents\Masterarbeit\PsychoPy\img_exp\M04_06.jpg,img_exp/M04_06.jpg,M04,6,6.6,,,,,0,89,89,177,,,,,,,,,,,,,24,2.66355299949646,M,,,,,560.4351370334625,561.1268999576569,561.1268999576569,561.1268999576569,,1,w,27,2023-05-16_12h00.06.027,Gaze_Estimation_Final,2022.2.4,38.524669064563184,
C:\Users\calti\Documents\Masterarbeit\PsychoPy\img_exp\F12_12.jpg,img_exp/F12_12.jpg,F12,12,13.3,,,,,0,90,90,65,,,,,,,,,,,,,45,2.4910662174224854,F,,,,,563.6531958580017,564.3509578704834,564.3509578704834,564.3509578704834,,1,w,27,2023-05-16_12h00.06.027,Gaze_Estimation_Final,2022.2.4,38.524669064563184,
C:\Users\calti\Documents\Masterarbeit\PsychoPy\img_exp\F23_04.jpg,img_exp/F23_04.jpg,F23,4,4.4,,,,,0,91,91,128,,,,,,,,,,,,,4,3.772512197494507,F,,,,,566.6998498439789,567.3842418193817,567.3842418193817,567.3842418193817,,1,w,27,2023-05-16_12h00.06.027,Gaze_Estimation_Final,2022.2.4,38.524669064563184,
C:\Users\calti\Documents\Masterarbeit\PsychoPy\img_exp\F11_08.jpg,img_exp/F11_08.jpg,F11,8,8.8,,,,,0,92,92,58,,,,,,,,,,,,,28,3.0324552059173584,F,,,,,571.0283780097961,571.7286870479584,571.7286870479584,571.7286870479584,,1,w,27,2023-05-16_12h00.06.027,Gaze_Estimation_Final,2022.2.4,38.524669064563184,
C:\Users\calti\Documents\Masterarbeit\PsychoPy\img_exp\F16_00.jpg,img_exp/F16_00.jpg,F16,0,0,,,,,0,93,93,84,,,,,,,,,,,,,1,1.5764060020446777,F,,,,,574.6156408786774,575.3014240264893,575.3014240264893,575.3014240264893,,1,w,27,2023-05-16_12h00.06.027,Gaze_Estimation_Final,2022.2.4,38.524669064563184,
C:\Users\calti\Documents\Masterarbeit\PsychoPy\img_exp\M01_04.jpg,img_exp/M01_04.jpg,M01,4,4.4,,,,,0,94,94,158,,,,,,,,,,,,,22,5.358817100524902,M,,,,,576.7469818592072,577.4419460296631,577.4419460296631,577.4419460296631,,1,w,27,2023-05-16_12h00.06.027,Gaze_Estimation_Final,2022.2.4,38.524669064563184,
C:\Users\calti\Documents\Masterarbeit\PsychoPy\img_exp\F28_04.jpg,img_exp/F28_04.jpg,F28,4,4.4,,,,,0,95,95,152,,,,,,,,,,,,,7,5.83371901512146,F,,,,,582.6610898971558,583.3458659648895,583.3458659648895,583.3458659648895,,1,w,27,2023-05-16_12h00.06.027,Gaze_Estimation_Final,2022.2.4,38.524669064563184,
C:\Users\calti\Documents\Masterarbeit\PsychoPy\img_exp\F24_04.jpg,img_exp/F24_04.jpg,F24,4,4.4,,,,,0,96,96,134,,,,,,,,,,,,,18,5.62321400642395,F,,,,,589.0500149726868,589.7326538562775,589.7326538562775,589.7326538562775,,1,w,27,2023-05-16_12h00.06.027,Gaze_Estimation_Final,2022.2.4,38.524669064563184,
C:\Users\calti\Documents\Masterarbeit\PsychoPy\img_exp\F01_00.jpg,img_exp/F01_00.jpg,F01,0,0,,,,,0,97,97,0,,,,,,,,,,,,,2,2.982116937637329,F,,,,,595.2278289794922,595.9289839267731,595.9289839267731,595.9289839267731,,1,w,27,2023-05-16_12h00.06.027,Gaze_Estimation_Final,2022.2.4,38.524669064563184,
C:\Users\calti\Documents\Masterarbeit\PsychoPy\img_exp\F07_04.jpg,img_exp/F07_04.jpg,F07,4,4.4,,,,,0,98,98,32,,,,,,,,,,,,,9,2.470024824142456,F,,,,,598.7661869525909,599.449709892273,599.449709892273,599.449709892273,,1,w,27,2023-05-16_12h00.06.027,Gaze_Estimation_Final,2022.2.4,38.524669064563184,
C:\Users\calti\Documents\Masterarbeit\PsychoPy\img_exp\M10_08.jpg,img_exp/M10_08.jpg,M10,8,8.8,,,,,0,99,99,214,,,,,,,,,,,,,17,2.8854432106018066,M,,,,,601.7913269996643,602.4810888767242,602.4810888767242,602.4810888767242,,1,w,27,2023-05-16_12h00.06.027,Gaze_Estimation_Final,2022.2.4,38.524669064563184,
C:\Users\calti\Documents\Masterarbeit\PsychoPy\img_exp\M13_00.jpg,img_exp/M13_00.jpg,M13,0,0,,,,,0,100,100,228,,,,,,,,,,,,,2,3.1061971187591553,M,,,,,605.2298679351807,605.9200420379639,605.9200420379639,605.9200420379639,,1,w,27,2023-05-16_12h00.06.027,Gaze_Estimation_Final,2022.2.4,38.524669064563184,
C:\Users\calti\Documents\Masterarbeit\PsychoPy\img_exp\M10_06.jpg,img_exp/M10_06.jpg,M10,6,6.6,,,,,0,101,101,213,,,,,,,,,,,,,29,6.608476877212524,M,,,,,608.8900189399719,609.5720829963684,609.5720829963684,609.5720829963684,,1,w,27,2023-05-16_12h00.06.027,Gaze_Estimation_Final,2022.2.4,38.524669064563184,
C:\Users\calti\Documents\Masterarbeit\PsychoPy\img_exp\F17_04.jpg,img_exp/F17_04.jpg,F17,4,4.4,,,,,0,102,102,92,,,,,,,,,,,,,1,1.6311049461364746,F,,,,,616.0519428253174,616.7446939945221,616.7446939945221,616.7446939945221,,1,w,27,2023-05-16_12h00.06.027,Gaze_Estimation_Final,2022.2.4,38.524669064563184,
C:\Users\calti\Documents\Masterarbeit\PsychoPy\img_exp\F18_12.jpg,img_exp/F18_12.jpg,F18,12,13.3,,,,,0,103,103,101,,,,,,,,,,,,,45,2.4791009426116943,F,,,,,618.2375218868256,618.9217908382416,618.9217908382416,618.9217908382416,,1,w,27,2023-05-16_12h00.06.027,Gaze_Estimation_Final,2022.2.4,38.524669064563184,
C:\Users\calti\Documents\Masterarbeit\PsychoPy\img_exp\F16_02.jpg,img_exp/F16_02.jpg,F16,2,2.2,,,,,0,104,104,85,,,,,,,,,,,,,1,1.5802030563354492,F,,,,,621.269672870636,621.9589538574219,621.9589538574219,621.9589538574219,,1,w,27,2023-05-16_12h00.06.027,Gaze_Estimation_Final,2022.2.4,38.524669064563184,
C:\Users\calti\Documents\Masterarbeit\PsychoPy\img_exp\F02_12.jpg,img_exp/F02_12.jpg,F02,12,13.3,,,,,0,105,105,11,,,,,,,,,,,,,55,2.4762299060821533,F,,,,,623.4050319194794,624.0888340473175,624.0888340473175,624.0888340473175,,1,w,27,2023-05-16_12h00.06.027,Gaze_Estimation_Final,2022.2.4,38.524669064563184,
C:\Users\calti\Documents\Masterarbeit\PsychoPy\img_exp\F15_06.jpg,img_exp/F15_06.jpg,F15,6,6.6,,,,,0,106,106,81,,,,,,,,,,,,,38,6.92304801940918,F,,,,,626.433501958847,627.1147918701172,627.1147918701172,627.1147918701172,,1,w,27,2023-05-16_12h00.06.027,Gaze_Estimation_Final,2022.2.4,38.524669064563184,
C:\Users\calti\Documents\Masterarbeit\PsychoPy\img_exp\F24_02.jpg,img_exp/F24_02.jpg,F24,2,2.2,,,,,0,107,107,133,,,,,,,,,,,,,1,3.2118887901306152,F,,,,,633.9094939231873,634.607419013977,634.607419013977,634.607419013977,,1,w,27,2023-05-16_12h00.06.027,Gaze_Estimation_Final,2022.2.4,38.524669064563184,
C:\Users\calti\Documents\Masterarbeit\PsychoPy\img_exp\F08_08.jpg,img_exp/F08_08.jpg,F08,8,8.8,,,,,0,108,108,40,,,,,,,,,,,,,20,12.797847032546997,F,,,,,637.6757788658142,638.3714380264282,638.3714380264282,638.3714380264282,,1,w,27,2023-05-16_12h00.06.027,Gaze_Estimation_Final,2022.2.4,38.524669064563184,
C:\Users\calti\Documents\Masterarbeit\PsychoPy\img_exp\M13_12.jpg,img_exp/M13_12.jpg,M13,12,13.3,,,,,0,109,109,233,,,,,,,,,,,,,29,4.884707927703857,M,,,,,651.0278840065002,651.7267608642578,651.7267608642578,651.7267608642578,,1,w,27,2023-05-16_12h00.06.027,Gaze_Estimation_Final,2022.2.4,38.524669064563184,
C:\Users\calti\Documents\Masterarbeit\PsychoPy\img_exp\F25_06.jpg,img_exp/F25_06.jpg,F25,6,6.6,,,,,0,110,110,141,,,,,,,,,,,,,22,4.280949831008911,F,,,,,656.4660949707031,657.1559219360352,657.1559219360352,657.1559219360352,,1,w,27,2023-05-16_12h00.06.027,Gaze_Estimation_Final,2022.2.4,38.524669064563184,
C:\Users\calti\Documents\Masterarbeit\PsychoPy\img_exp\M02_02.jpg,img_exp/M02_02.jpg,M02,2,2.2,,,,,0,111,111,163,,,,,,,,,,,,,1,1.6741862297058105,M,,,,,661.3018319606781,661.9937129020691,661.9937129020691,661.9937129020691,,1,w,27,2023-05-16_12h00.06.027,Gaze_Estimation_Final,2022.2.4,38.524669064563184,
C:\Users\calti\Documents\Masterarbeit\PsychoPy\img_exp\F04_02.jpg,img_exp/F04_02.jpg,F04,2,2.2,,,,,0,112,112,19,,,,,,,,,,,,,1,1.1837561130523682,F,,,,,663.5309150218964,664.2266459465027,664.2266459465027,664.2266459465027,,1,w,27,2023-05-16_12h00.06.027,Gaze_Estimation_Final,2022.2.4,38.524669064563184,
C:\Users\calti\Documents\Masterarbeit\PsychoPy\img_exp\F14_04.jpg,img_exp/F14_04.jpg,F14,4,4.4,,,,,0,113,113,74,,,,,,,,,,,,,24,10.014039039611816,F,,,,,665.2715198993683,665.9586598873138,665.9586598873138,665.9586598873138,,1,w,27,2023-05-16_12h00.06.027,Gaze_Estimation_Final,2022.2.4,38.524669064563184,
C:\Users\calti\Documents\Masterarbeit\PsychoPy\img_exp\M05_08.jpg,img_exp/M05_08.jpg,M05,8,8.8,,,,,0,114,114,184,,,,,,,,,,,,,42,6.285339117050171,M,,,,,675.8383829593658,676.521054983139,676.521054983139,676.521054983139,,1,w,27,2023-05-16_12h00.06.027,Gaze_Estimation_Final,2022.2.4,38.524669064563184,
C:\Users\calti\Documents\Masterarbeit\PsychoPy\img_exp\F18_02.jpg,img_exp/F18_02.jpg,F18,2,2.2,,,,,0,115,115,97,,,,,,,,,,,,,1,1.455104112625122,F,,,,,682.6793358325958,683.3787939548492,683.3787939548492,683.3787939548492,,1,w,27,2023-05-16_12h00.06.027,Gaze_Estimation_Final,2022.2.4,38.524669064563184,
C:\Users\calti\Documents\Masterarbeit\PsychoPy\img_exp\F10_12.jpg,img_exp/F10_12.jpg,F10,12,13.3,,,,,0,116,116,53,,,,,,,,,,,,,65,3.509618043899536,F,,,,,684.6899189949036,685.3764588832855,685.3764588832855,685.3764588832855,,1,w,27,2023-05-16_12h00.06.027,Gaze_Estimation_Final,2022.2.4,38.524669064563184,
C:\Users\calti\Documents\Masterarbeit\PsychoPy\img_exp\M14_06.jpg,img_exp/M14_06.jpg,M14,6,6.6,,,,,0,117,117,237,,,,,,,,,,,,,65,3.1039178371429443,M,,,,,688.7548999786377,689.4363808631897,689.4363808631897,689.4363808631897,,1,w,27,2023-05-16_12h00.06.027,Gaze_Estimation_Final,2022.2.4,38.524669064563184,
C:\Users\calti\Documents\Masterarbeit\PsychoPy\img_exp\F11_08.jpg,img_exp/F11_08.jpg,F11,8,8.8,,,,,0,118,118,58,,,,,,,,,,,,,70,2.9680089950561523,F,,,,,692.4123909473419,693.0951499938965,693.0951499938965,693.0951499938965,,1,w,27,2023-05-16_12h00.06.027,Gaze_Estimation_Final,2022.2.4,38.524669064563184,
C:\Users\calti\Documents\Masterarbeit\PsychoPy\img_exp\M01_08.jpg,img_exp/M01_08.jpg,M01,8,8.8,,,,,0,119,119,160,,,,,,,,,,,,,54,6.201850891113281,M,,,,,695.9351298809052,696.6180689334869,696.6180689334869,696.6180689334869,,1,w,27,2023-05-16_12h00.06.027,Gaze_Estimation_Final,2022.2.4,38.524669064563184,
C:\Users\calti\Documents\Masterarbeit\PsychoPy\img_exp\F16_02.jpg,img_exp/F16_02.jpg,F16,2,2.2,,,,,0,120,120,85,,,,,,,,,,,,,1,1.57511305809021,F,,,,,702.6912808418274,703.3741219043732,703.3741219043732,703.3741219043732,,1,w,27,2023-05-16_12h00.06.027,Gaze_Estimation_Final,2022.2.4,38.524669064563184,
C:\Users\calti\Documents\Masterarbeit\PsychoPy\img_exp\F04_04.jpg,img_exp/F04_04.jpg,F04,4,4.4,,,,,0,121,121,20,,,,,,,,,,,,,21,8.236819982528687,F,,,,,704.8200829029083,705.5047309398651,705.5047309398651,705.5047309398651,,1,w,27,2023-05-16_12h00.06.027,Gaze_Estimation_Final,2022.2.4,38.524669064563184,
C:\Users\calti\Documents\Masterarbeit\PsychoPy\img_exp\M03_00.jpg,img_exp/M03_00.jpg,M03,0,0,,,,,0,122,122,168,,,,,,,,,,,,,1,1.5003039836883545,M,,,,,713.6116168498993,714.3068969249725,714.3068969249725,714.3068969249725,,1,w,27,2023-05-16_12h00.06.027,Gaze_Estimation_Final,2022.2.4,38.524669064563184,
C:\Users\calti\Documents\Masterarbeit\PsychoPy\img_exp\F07_00.jpg,img_exp/F07_00.jpg,F07,0,0,,,,,0,123,123,30,,,,,,,,,,,,,1,1.2253170013427734,F,,,,,715.6658840179443,716.358806848526,716.358806848526,716.358806848526,,1,w,27,2023-05-16_12h00.06.027,Gaze_Estimation_Final,2022.2.4,38.524669064563184,
C:\Users\calti\Documents\Masterarbeit\PsychoPy\img_exp\F21_12.jpg,img_exp/F21_12.jpg,F21,12,13.3,,,,,0,124,124,119,,,,,,,,,,,,,59,3.6014559268951416,F,,,,,717.445562839508,718.1320509910583,718.1320509910583,718.1320509910583,,1,w,27,2023-05-16_12h00.06.027,Gaze_Estimation_Final,2022.2.4,38.524669064563184,
C:\Users\calti\Documents\Masterarbeit\PsychoPy\img_exp\F22_08.jpg,img_exp/F22_08.jpg,F22,8,8.8,,,,,0,125,125,124,,,,,,,,,,,,,62,3.237550973892212,F,,,,,721.5997929573059,722.2828829288483,722.2828829288483,722.2828829288483,,1,w,27,2023-05-16_12h00.06.027,Gaze_Estimation_Final,2022.2.4,38.524669064563184,
C:\Users\calti\Documents\Masterarbeit\PsychoPy\img_exp\F01_08.jpg,img_exp/F01_08.jpg,F01,8,8.8,,,,,0,126,126,4,,,,,,,,,,,,,62,2.8991498947143555,F,,,,,725.3897109031677,726.0920329093933,726.0920329093933,726.0920329093933,,1,w,27,2023-05-16_12h00.06.027,Gaze_Estimation_Final,2022.2.4,38.524669064563184,
C:\Users\calti\Documents\Masterarbeit\PsychoPy\img_exp\F07_08.jpg,img_exp/F07_08.jpg,F07,8,8.8,,,,,0,127,127,34,,,,,,,,,,,,,54,2.5242249965667725,F,,,,,728.8431038856506,729.531956911087,729.531956911087,729.531956911087,,1,w,27,2023-05-16_12h00.06.027,Gaze_Estimation_Final,2022.2.4,38.524669064563184,
C:\Users\calti\Documents\Masterarbeit\PsychoPy\img_exp\F03_08.jpg,img_exp/F03_08.jpg,F03,8,8.8,,,,,0,128,128,16,,,,,,,,,,,,,51,2.8869190216064453,F,,,,,731.9220819473267,732.6115288734436,732.6115288734436,732.6115288734436,,1,w,27,2023-05-16_12h00.06.027,Gaze_Estimation_Final,2022.2.4,38.524669064563184,
C:\Users\calti\Documents\Masterarbeit\PsychoPy\img_exp\F28_08.jpg,img_exp/F28_08.jpg,F28,8,8.8,,,,,0,129,129,154,,,,,,,,,,,,,63,6.672722101211548,F,,,,,735.3637750148773,736.0665228366852,736.0665228366852,736.0665228366852,,1,w,27,2023-05-16_12h00.06.027,Gaze_Estimation_Final,2022.2.4,38.524669064563184,
C:\Users\calti\Documents\Masterarbeit\PsychoPy\img_exp\F08_02.jpg,img_exp/F08_02.jpg,F08,2,2.2,,,,,0,130,130,37,,,,,,,,,,,,,3,4.865689992904663,F,,,,,742.5903470516205,743.2824048995972,743.2824048995972,743.2824048995972,,1,w,27,2023-05-16_12h00.06.027,Gaze_Estimation_Final,2022.2.4,38.524669064563184,
C:\Users\calti\Documents\Masterarbeit\PsychoPy\img_exp\F03_06.jpg,img_exp/F03_06.jpg,F03,6,6.6,,,,,0,131,131,15,,,,,,,,,,,,,45,3.751254081726074,F,,,,,748.0098659992218,748.7046859264374,748.7046859264374,748.7046859264374,,1,w,27,2023-05-16_12h00.06.027,Gaze_Estimation_Final,2022.2.4,38.524669064563184,
C:\Users\calti\Documents\Masterarbeit\PsychoPy\img_exp\M07_00.jpg,img_exp/M07_00.jpg,M07,0,0,,,,,0,132,132,192,,,,,,,,,,,,,1,1.4526739120483398,M,,,,,752.3155598640442,753.0115029811859,753.0115029811859,753.0115029811859,,1,w,27,2023-05-16_12h00.06.027,Gaze_Estimation_Final,2022.2.4,38.524669064563184,
C:\Users\calti\Documents\Masterarbeit\PsychoPy\img_exp\M06_02.jpg,img_exp/M06_02.jpg,M06,2,2.2,,,,,0,133,133,187,,,,,,,,,,,,,20,3.4312620162963867,M,,,,,754.3239920139313,755.0201539993286,755.0201539993286,755.0201539993286,,1,w,27,2023-05-16_12h00.06.027,Gaze_Estimation_Final,2022.2.4,38.524669064563184,
C:\Users\calti\Documents\Masterarbeit\PsychoPy\img_exp\F09_00.jpg,img_exp/F09_00.jpg,F09,0,0,,,,,0,134,134,42,,,,,,,,,,,,,1,1.3067741394042969,F,,,,,758.3100390434265,758.9941818714142,758.9941818714142,758.9941818714142,,1,w,27,2023-05-16_12h00.06.027,Gaze_Estimation_Final,2022.2.4,38.524669064563184,
C:\Users\calti\Documents\Masterarbeit\PsychoPy\img_exp\M07_08.jpg,img_exp/M07_08.jpg,M07,8,8.8,,,,,0,135,135,196,,,,,,,,,,,,,6,2.0849688053131104,M,,,,,760.1722259521484,760.8690588474274,760.8690588474274,760.8690588474274,,1,w,27,2023-05-16_12h00.06.027,Gaze_Estimation_Final,2022.2.4,38.524669064563184,
C:\Users\calti\Documents\Masterarbeit\PsychoPy\img_exp\F20_00.jpg,img_exp/F20_00.jpg,F20,0,0,,,,,0,136,136,108,,,,,,,,,,,,,1,2.2984368801116943,F,,,,,762.8119719028473,763.5015690326691,763.5015690326691,763.5015690326691,,1,w,27,2023-05-16_12h00.06.027,Gaze_Estimation_Final,2022.2.4,38.524669064563184,
C:\Users\calti\Documents\Masterarbeit\PsychoPy\img_exp\F14_00.jpg,img_exp/F14_00.jpg,F14,0,0,,,,,0,137,137,72,,,,,,,,,,,,,1,1.1260709762573242,F,,,,,765.6636648178101,766.348659992218,766.348659992218,766.348659992218,,1,w,27,2023-05-16_12h00.06.027,Gaze_Estimation_Final,2022.2.4,38.524669064563184,
C:\Users\calti\Documents\Masterarbeit\PsychoPy\img_exp\M04_06.jpg,img_exp/M04_06.jpg,M04,6,6.6,,,,,0,138,138,177,,,,,,,,,,,,,39,9.30966591835022,M,,,,,767.3465189933777,768.030210018158,768.030210018158,768.030210018158,,1,w,27,2023-05-16_12h00.06.027,Gaze_Estimation_Final,2022.2.4,38.524669064563184,
C:\Users\calti\Documents\Masterarbeit\PsychoPy\img_exp\F15_04.jpg,img_exp/F15_04.jpg,F15,4,4.4,,,,,0,139,139,80,,,,,,,,,,,,,31,3.393261194229126,F,,,,,777.210746049881,777.9148080348969,777.9148080348969,777.9148080348969,,1,w,27,2023-05-16_12h00.06.027,Gaze_Estimation_Final,2022.2.4,38.524669064563184,
C:\Users\calti\Documents\Masterarbeit\PsychoPy\img_exp\M14_02.jpg,img_exp/M14_02.jpg,M14,2,2.2,,,,,0,140,140,235,,,,,,,,,,,,,2,2.46989107131958,M,,,,,781.158056974411,781.8385829925537,781.8385829925537,781.8385829925537,,1,w,27,2023-05-16_12h00.06.027,Gaze_Estimation_Final,2022.2.4,38.524669064563184,
C:\Users\calti\Documents\Masterarbeit\PsychoPy\img_exp\F18_00.jpg,img_exp/F18_00.jpg,F18,0,0,,,,,0,141,141,96,,,,,,,,,,,,,1,1.4948930740356445,F,,,,,784.183070898056,784.8808379173279,784.8808379173279,784.8808379173279,,1,w,27,2023-05-16_12h00.06.027,Gaze_Estimation_Final,2022.2.4,38.524669064563184,
C:\Users\calti\Documents\Masterarbeit\PsychoPy\img_exp\M06_12.jpg,img_exp/M06_12.jpg,M06,12,13.3,,,,,0,142,142,191,,,,,,,,,,,,,66,7.945204973220825,M,,,,,786.2357909679413,786.9244408607483,786.9244408607483,786.9244408607483,,1,w,27,2023-05-16_12h00.06.027,Gaze_Estimation_Final,2022.2.4,38.524669064563184,
C:\Users\calti\Documents\Masterarbeit\PsychoPy\img_exp\M02_12.jpg,img_exp/M02_12.jpg,M02,12,13.3,,,,,0,143,143,167,,,,,,,,,,,,,73,2.8039770126342773,M,,,,,794.7348258495331,795.4329369068146,795.4329369068146,795.4329369068146,,1,w,27,2023-05-16_12h00.06.027,Gaze_Estimation_Final,2022.2.4,38.524669064563184,
C:\Users\calti\Documents\Masterarbeit\PsychoPy\img_exp\F26_04.jpg,img_exp/F26_04.jpg,F26,4,4.4,,,,,0,144,144,146,,,,,,,,,,,,,34,4.684032917022705,F,,,,,798.0952408313751,798.7844660282135,798.7844660282135,798.7844660282135,,1,w,27,2023-05-16_12h00.06.027,Gaze_Estimation_Final,2022.2.4,38.524669064563184,
C:\Users\calti\Documents\Masterarbeit\PsychoPy\img_exp\F22_06.jpg,img_exp/F22_06.jpg,F22,6,6.6,,,,,0,145,145,123,,,,,,,,,,,,,38,4.939934968948364,F,,,,,803.3330080509186,804.0175650119781,804.0175650119781,804.0175650119781,,1,w,27,2023-05-16_12h00.06.027,Gaze_Estimation_Final,2022.2.4,38.524669064563184,
C:\Users\calti\Documents\Masterarbeit\PsychoPy\img_exp\F26_12.jpg,img_exp/F26_12.jpg,F26,12,13.3,,,,,0,146,146,149,,,,,,,,,,,,,49,3.0141050815582275,F,,,,,808.8264288902283,809.5109398365021,809.5109398365021,809.5109398365021,,1,w,27,2023-05-16_12h00.06.027,Gaze_Estimation_Final,2022.2.4,38.524669064563184,
C:\Users\calti\Documents\Masterarbeit\PsychoPy\img_exp\F01_06.jpg,img_exp/F01_06.jpg,F01,6,6.6,,,,,0,147,147,3,,,,,,,,,,,,,43,2.936316967010498,F,,,,,812.3934829235077,813.0869090557098,813.0869090557098,813.0869090557098,,1,w,27,2023-05-16_12h00.06.027,Gaze_Estimation_Final,2022.2.4,38.524669064563184,
C:\Users\calti\Documents\Masterarbeit\PsychoPy\img_exp\F13_02.jpg,img_exp/F13_02.jpg,F13,2,2.2,,,,,0,148,148,67,,,,,,,,,,,,,1,1.3223040103912354,F,,,,,815.8819279670715,816.5799269676208,816.5799269676208,816.5799269676208,,1,w,27,2023-05-16_12h00.06.027,Gaze_Estimation_Final,2022.2.4,38.524669064563184,
C:\Users\calti\Documents\Masterarbeit\PsychoPy\img_exp\F20_04.jpg,img_exp/F20_04.jpg,F20,4,4.4,,,,,0,149,149,110,,,,,,,,,,,,,44,15.445945978164673,F,,,,,817.7594020366669,818.4632120132446,818.4632120132446,818.4632120132446,,1,w,27,2023-05-16_12h00.06.027,Gaze_Estimation_Final,2022.2.4,38.524669064563184,
C:\Users\calti\Documents\Masterarbeit\PsychoPy\img_exp\F04_00.jpg,img_exp/F04_00.jpg,F04,0,0,,,,,0,150,150,18,,,,,,,,,,,,,1,1.4498951435089111,F,,,,,833.7599828243256,834.4528720378876,834.4528720378876,834.4528720378876,,1,w,27,2023-05-16_12h00.06.027,Gaze_Estimation_Final,2022.2.4,38.524669064563184,
C:\Users\calti\Documents\Masterarbeit\PsychoPy\img_exp\F13_08.jpg,img_exp/F13_08.jpg,F13,8,8.8,,,,,0,151,151,70,,,,,,,,,,,,,37,3.4633381366729736,F,,,,,835.7639169692993,836.4476759433746,836.4476759433746,836.4476759433746,,1,w,27,2023-05-16_12h00.06.027,Gaze_Estimation_Final,2022.2.4,38.524669064563184,
C:\Users\calti\Documents\Masterarbeit\PsychoPy\img_exp\F12_04.jpg,img_exp/F12_04.jpg,F12,4,4.4,,,,,0,152,152,62,,,,,,,,,,,,,28,3.963423013687134,F,,,,,839.7795259952545,840.4728088378906,840.4728088378906,840.4728088378906,,1,w,27,2023-05-16_12h00.06.027,Gaze_Estimation_Final,2022.2.4,38.524669064563184,
C:\Users\calti\Documents\Masterarbeit\PsychoPy\img_exp\F07_02.jpg,img_exp/F07_02.jpg,F07,2,2.2,,,,,0,153,153,31,,,,,,,,,,,,,1,1.3954980373382568,F,,,,,844.2964839935303,844.9786078929901,844.9786078929901,844.9786078929901,,1,w,27,2023-05-16_12h00.06.027,Gaze_Estimation_Final,2022.2.4,38.524669064563184,
C:\Users\calti\Documents\Masterarbeit\PsychoPy\img_exp\F20_02.jpg,img_exp/F20_02.jpg,F20,2,2.2,,,,,0,154,154,109,,,,,,,,,,,,,42,4.1177849769592285,F,,,,,846.2452368736267,846.9493539333344,846.9493539333344,846.9493539333344,,1,w,27,2023-05-16_12h00.06.027,Gaze_Estimation_Final,2022.2.4,38.524669064563184,
C:\Users\calti\Documents\Masterarbeit\PsychoPy\img_exp\F16_12.jpg,img_exp/F16_12.jpg,F16,12,13.3,,,,,0,155,155,89,,,,,,,,,,,,,77,4.724661111831665,F,,,,,850.9175109863281,851.6118009090424,851.6118009090424,851.6118009090424,,1,w,27,2023-05-16_12h00.06.027,Gaze_Estimation_Final,2022.2.4,38.524669064563184,
C:\Users\calti\Documents\Masterarbeit\PsychoPy\img_exp\F24_08.jpg,img_exp/F24_08.jpg,F24,8,8.8,,,,,0,156,156,136,,,,,,,,,,,,,78,3.568135976791382,F,,,,,856.1987099647522,856.8919999599457,856.8919999599457,856.8919999599457,,1,w,27,2023-05-16_12h00.06.027,Gaze_Estimation_Final,2022.2.4,38.524669064563184,
C:\Users\calti\Documents\Masterarbeit\PsychoPy\img_exp\M08_08.jpg,img_exp/M08_08.jpg,M08,8,8.8,,,,,0,157,157,202,,,,,,,,,,,,,77,2.9703309535980225,M,,,,,860.3207268714905,861.0040929317474,861.0040929317474,861.0040929317474,,1,w,27,2023-05-16_12h00.06.027,Gaze_Estimation_Final,2022.2.4,38.524669064563184,
C:\Users\calti\Documents\Masterarbeit\PsychoPy\img_exp\F28_08.jpg,img_exp/F28_08.jpg,F28,8,8.8,,,,,0,158,158,154,,,,,,,,,,,,,77,1.9392130374908447,F,,,,,863.8460040092468,864.5302839279175,864.5302839279175,864.5302839279175,,1,w,27,2023-05-16_12h00.06.027,Gaze_Estimation_Final,2022.2.4,38.524669064563184,
C:\Users\calti\Documents\Masterarbeit\PsychoPy\img_exp\M10_04.jpg,img_exp/M10_04.jpg,M10,4,4.4,,,,,0,159,159,212,,,,,,,,,,,,,35,9.626901149749756,M,,,,,866.3398449420929,867.0245299339294,867.0245299339294,867.0245299339294,,1,w,27,2023-05-16_12h00.06.027,Gaze_Estimation_Final,2022.2.4,38.524669064563184,
C:\Users\calti\Documents\Masterarbeit\PsychoPy\img_exp\F16_06.jpg,img_exp/F16_06.jpg,F16,6,6.6,,,,,0,160,160,87,,,,,,,,,,,,,25,5.176803827285767,F,,,,,876.5240149497986,877.2172708511353,877.2172708511353,877.2172708511353,,1,w,27,2023-05-16_12h00.06.027,Gaze_Estimation_Final,2022.2.4,38.524669064563184,
C:\Users\calti\Documents\Masterarbeit\PsychoPy\img_exp\M07_12.jpg,img_exp/M07_12.jpg,M07,12,13.3,,,,,0,161,161,197,,,,,,,,,,,,,46,3.7781810760498047,M,,,,,882.2558958530426,882.9836349487305,882.9836349487305,882.9836349487305,,1,w,27,2023-05-16_12h00.06.027,Gaze_Estimation_Final,2022.2.4,38.524669064563184,
C:\Users\calti\Documents\Masterarbeit\PsychoPy\img_exp\F09_04.jpg,img_exp/F09_04.jpg,F09,4,4.4,,,,,0,162,162,44,,,,,,,,,,,,,21,4.235867977142334,F,,,,,886.5885248184204,887.2830798625946,887.2830798625946,887.2830798625946,,1,w,27,2023-05-16_12h00.06.027,Gaze_Estimation_Final,2022.2.4,38.524669064563184,
C:\Users\calti\Documents\Masterarbeit\PsychoPy\img_exp\F28_00.jpg,img_exp/F28_00.jpg,F28,0,0,,,,,0,163,163,150,,,,,,,,,,,,,1,1.6720480918884277,F,,,,,891.3763790130615,892.0680358409882,892.0680358409882,892.0680358409882,,1,w,27,2023-05-16_12h00.06.027,Gaze_Estimation_Final,2022.2.4,38.524669064563184,
C:\Users\calti\Documents\Masterarbeit\PsychoPy\img_exp\F22_00.jpg,img_exp/F22_00.jpg,F22,0,0,,,,,0,164,164,120,,,,,,,,,,,,,1,1.1732919216156006,F,,,,,893.6034958362579,894.2887568473816,894.2887568473816,894.2887568473816,,1,w,27,2023-05-16_12h00.06.027,Gaze_Estimation_Final,2022.2.4,38.524669064563184,
C:\Users\calti\Documents\Masterarbeit\PsychoPy\img_exp\F19_12.jpg,img_exp/F19_12.jpg,F19,12,13.3,,,,,0,165,165,107,,,,,,,,,,,,,59,6.039906978607178,F,,,,,895.3315029144287,896.0292448997498,896.0292448997498,896.0292448997498,,1,w,27,2023-05-16_12h00.06.027,Gaze_Estimation_Final,2022.2.4,38.524669064563184,
C:\Users\calti\Documents\Masterarbeit\PsychoPy\img_exp\F01_04.jpg,img_exp/F01_04.jpg,F01,4,4.4,,,,,0,166,166,2,,,,,,,,,,,,,29,2.9408621788024902,F,,,,,901.9254038333893,902.6224880218506,902.6224880218506,902.6224880218506,,1,w,27,2023-05-16_12h00.06.027,Gaze_Estimation_Final,2022.2.4,38.524669064563184,
C:\Users\calti\Documents\Masterarbeit\PsychoPy\img_exp\M14_00.jpg,img_exp/M14_00.jpg,M14,0,0,,,,,0,167,167,234,,,,,,,,,,,,,1,1.3933219909667969,M,,,,,905.4186749458313,906.099259853363,906.099259853363,906.099259853363,,1,w,27,2023-05-16_12h00.06.027,Gaze_Estimation_Final,2022.2.4,38.524669064563184,
C:\Users\calti\Documents\Masterarbeit\PsychoPy\img_exp\F24_00.jpg,img_exp/F24_00.jpg,F24,0,0,,,,,0,168,168,132,,,,,,,,,,,,,1,1.3071720600128174,F,,,,,907.3657529354095,908.0931258201599,908.0931258201599,908.0931258201599,,1,w,27,2023-05-16_12h00.06.027,Gaze_Estimation_Final,2022.2.4,38.524669064563184,
C:\Users\calti\Documents\Masterarbeit\PsychoPy\img_exp\F22_04.jpg,img_exp/F22_04.jpg,F22,4,4.4,,,,,0,169,169,122,,,,,,,,,,,,,25,4.907758951187134,F,,,,,909.2255718708038,909.921010017395,909.921010017395,909.921010017395,,1,w,27,2023-05-16_12h00.06.027,Gaze_Estimation_Final,2022.2.4,38.524669064563184,
C:\Users\calti\Documents\Masterarbeit\PsychoPy\img_exp\M07_02.jpg,img_exp/M07_02.jpg,M07,2,2.2,,,,,0,170,170,193,,,,,,,,,,,,,3,3.594884157180786,M,,,,,914.6872520446777,915.3707790374756,915.3707790374756,915.3707790374756,,1,w,27,2023-05-16_12h00.06.027,Gaze_Estimation_Final,2022.2.4,38.524669064563184,
C:\Users\calti\Documents\Masterarbeit\PsychoPy\img_exp\F11_02.jpg,img_exp/F11_02.jpg,F11,2,2.2,,,,,0,171,171,55,,,,,,,,,,,,,29,6.643787860870361,F,,,,,918.8343598842621,919.5147359371185,919.5147359371185,919.5147359371185,,1,w,27,2023-05-16_12h00.06.027,Gaze_Estimation_Final,2022.2.4,38.524669064563184,
C:\Users\calti\Documents\Masterarbeit\PsychoPy\img_exp\M04_06.jpg,img_exp/M04_06.jpg,M04,6,6.6,,,,,0,172,172,177,,,,,,,,,,,,,33,2.5646958351135254,M,,,,,926.0309009552002,926.7184119224548,926.7184119224548,926.7184119224548,,1,w,27,2023-05-16_12h00.06.027,Gaze_Estimation_Final,2022.2.4,38.524669064563184,
C:\Users\calti\Documents\Masterarbeit\PsychoPy\img_exp\M06_12.jpg,img_exp/M06_12.jpg,M06,12,13.3,,,,,0,173,173,191,,,,,,,,,,,,,48,4.580237865447998,M,,,,,929.1525518894196,929.8317258358002,929.8317258358002,929.8317258358002,,1,w,27,2023-05-16_12h00.06.027,Gaze_Estimation_Final,2022.2.4,38.524669064563184,
C:\Users\calti\Documents\Masterarbeit\PsychoPy\img_exp\F18_06.jpg,img_exp/F18_06.jpg,F18,6,6.6,,,,,0,174,174,99,,,,,,,,,,,,,27,8.531625986099243,F,,,,,934.2848448753357,934.9860289096832,934.9860289096832,934.9860289096832,,1,w,27,2023-05-16_12h00.06.027,Gaze_Estimation_Final,2022.2.4,38.524669064563184,
C:\Users\calti\Documents\Masterarbeit\PsychoPy\img_exp\F28_06.jpg,img_exp/F28_06.jpg,F28,6,6.6,,,,,0,175,175,153,,,,,,,,,,,,,31,6.507813930511475,F,,,,,943.3714258670807,944.0550348758698,944.0550348758698,944.0550348758698,,1,w,27,2023-05-16_12h00.06.027,Gaze_Estimation_Final,2022.2.4,38.524669064563184,
C:\Users\calti\Documents\Masterarbeit\PsychoPy\img_exp\F26_12.jpg,img_exp/F26_12.jpg,F26,12,13.3,,,,,0,176,176,149,,,,,,,,,,,,,49,3.3271119594573975,F,,,,,950.4342098236084,951.1152980327606,951.1152980327606,951.1152980327606,,1,w,27,2023-05-16_12h00.06.027,Gaze_Estimation_Final,2022.2.4,38.524669064563184,
C:\Users\calti\Documents\Masterarbeit\PsychoPy\img_exp\F28_04.jpg,img_exp/F28_04.jpg,F28,4,4.4,,,,,0,177,177,152,,,,,,,,,,,,,1,1.9340119361877441,F,,,,,954.3134410381317,954.9957778453827,954.9957778453827,954.9957778453827,,1,w,27,2023-05-16_12h00.06.027,Gaze_Estimation_Final,2022.2.4,38.524669064563184,
C:\Users\calti\Documents\Masterarbeit\PsychoPy\img_exp\M05_00.jpg,img_exp/M05_00.jpg,M05,0,0,,,,,0,178,178,180,,,,,,,,,,,,,1,1.172032117843628,M,,,,,956.8010549545288,957.4845478534698,957.4845478534698,957.4845478534698,,1,w,27,2023-05-16_12h00.06.027,Gaze_Estimation_Final,2022.2.4,38.524669064563184,
C:\Users\calti\Documents\Masterarbeit\PsychoPy\img_exp\F09_04.jpg,img_exp/F09_04.jpg,F09,4,4.4,,,,,0,179,179,44,,,,,,,,,,,,,16,3.2379300594329834,F,,,,,958.5282819271088,959.2121028900146,959.2121028900146,959.2121028900146,,1,w,27,2023-05-16_12h00.06.027,Gaze_Estimation_Final,2022.2.4,38.524669064563184,
C:\Users\calti\Documents\Masterarbeit\PsychoPy\img_exp\F14_08.jpg,img_exp/F14_08.jpg,F14,8,8.8,,,,,0,180,180,76,,,,,,,,,,,,,40,7.832816123962402,F,,,,,962.3205950260162,963.0143299102783,963.0143299102783,963.0143299102783,,1,w,27,2023-05-16_12h00.06.027,Gaze_Estimation_Final,2022.2.4,38.524669064563184,
C:\Users\calti\Documents\Masterarbeit\PsychoPy\img_exp\M05_12.jpg,img_exp/M05_12.jpg,M05,12,13.3,,,,,0,181,181,185,,,,,,,,,,,,,50,7.895056962966919,M,,,,,970.7078528404236,971.4063818454742,971.4063818454742,971.4063818454742,,1,w,27,2023-05-16_12h00.06.027,Gaze_Estimation_Final,2022.2.4,38.524669064563184,
C:\Users\calti\Documents\Masterarbeit\PsychoPy\img_exp\F07_00.jpg,img_exp/F07_00.jpg,F07,0,0,,,,,0,182,182,30,,,,,,,,,,,,,1,1.351680040359497,F,,,,,979.1573178768158,979.8400378227234,979.8400378227234,979.8400378227234,,1,w,27,2023-05-16_12h00.06.027,Gaze_Estimation_Final,2022.2.4,38.524669064563184,
C:\Users\calti\Documents\Masterarbeit\PsychoPy\img_exp\F25_00.jpg,img_exp/F25_00.jpg,F25,0,0,,,,,0,183,183,138,,,,,,,,,,,,,1,1.1924281120300293,F,,,,,981.061851978302,981.7650890350342,981.7650890350342,981.7650890350342,,1,w,27,2023-05-16_12h00.06.027,Gaze_Estimation_Final,2022.2.4,38.524669064563184,
C:\Users\calti\Documents\Masterarbeit\PsychoPy\img_exp\M12_06.jpg,img_exp/M12_06.jpg,M12,6,6.6,,,,,0,184,184,225,,,,,,,,,,,,,30,4.228120803833008,M,,,,,982.8092288970947,983.7211358547211,983.7211358547211,983.7211358547211,,1,w,27,2023-05-16_12h00.06.027,Gaze_Estimation_Final,2022.2.4,38.524669064563184,
C:\Users\calti\Documents\Masterarbeit\PsychoPy\img_exp\F17_12.jpg,img_exp/F17_12.jpg,F17,12,13.3,,,,,0,185,185,95,,,,,,,,,,,,,50,3.475039005279541,F,,,,,987.5917398929596,988.286878824234,988.286878824234,988.286878824234,,1,w,27,2023-05-16_12h00.06.027,Gaze_Estimation_Final,2022.2.4,38.524669064563184,
C:\Users\calti\Documents\Masterarbeit\PsychoPy\img_exp\M13_02.jpg,img_exp/M13_02.jpg,M13,2,2.2,,,,,0,186,186,229,,,,,,,,,,,,,21,5.179934978485107,M,,,,,991.6202118396759,992.3103318214417,992.3103318214417,992.3103318214417,,1,w,27,2023-05-16_12h00.06.027,Gaze_Estimation_Final,2022.2.4,38.524669064563184,
C:\Users\calti\Documents\Masterarbeit\PsychoPy\img_exp\F12_00.jpg,img_exp/F12_00.jpg,F12,0,0,,,,,0,187,187,60,,,,,,,,,,,,,1,1.721618890762329,F,,,,,997.3541429042816,998.0470759868622,998.0470759868622,998.0470759868622,,1,w,27,2023-05-16_12h00.06.027,Gaze_Estimation_Final,2022.2.4,38.524669064563184,
C:\Users\calti\Documents\Masterarbeit\PsychoPy\img_exp\F12_00.jpg,img_exp/F12_00.jpg,F12,0,0,,,,,0,188,188,60,,,,,,,,,,,,,1,1.2636260986328125,F,,,,,999.6289949417114,1000.3128628730774,1000.3128628730774,1000.3128628730774,,1,w,27,2023-05-16_12h00.06.027,Gaze_Estimation_Final,2022.2.4,38.524669064563184,
C:\Users\calti\Documents\Masterarbeit\PsychoPy\img_exp\F24_04.jpg,img_exp/F24_04.jpg,F24,4,4.4,,,,,0,189,189,134,,,,,,,,,,,,,10,3.9995079040527344,F,,,,,1001.4452350139618,1002.1270408630371,1002.1270408630371,1002.1270408630371,,1,w,27,2023-05-16_12h00.06.027,Gaze_Estimation_Final,2022.2.4,38.524669064563184,
C:\Users\calti\Documents\Masterarbeit\PsychoPy\img_exp\M13_06.jpg,img_exp/M13_06.jpg,M13,6,6.6,,,,,0,190,190,231,,,,,,,,,,,,,51,4.672430038452148,M,,,,,1005.9977509975433,1006.6784420013428,1006.6784420013428,1006.6784420013428,,1,w,27,2023-05-16_12h00.06.027,Gaze_Estimation_Final,2022.2.4,38.524669064563184,
C:\Users\calti\Documents\Masterarbeit\PsychoPy\img_exp\F17_02.jpg,img_exp/F17_02.jpg,F17,2,2.2,,,,,0,191,191,91,,,,,,,,,,,,,1,1.906541109085083,F,,,,,1011.22318983078,1011.9232609272003,1011.9232609272003,1011.9232609272003,,1,w,27,2023-05-16_12h00.06.027,Gaze_Estimation_Final,2022.2.4,38.524669064563184,
C:\Users\calti\Documents\Masterarbeit\PsychoPy\img_exp\M03_02.jpg,img_exp/M03_02.jpg,M03,2,2.2,,,,,0,192,192,169,,,,,,,,,,,,,19,2.4420740604400635,M,,,,,1013.6845569610596,1014.3790810108185,1014.3790810108185,1014.3790810108185,,1,w,27,2023-05-16_12h00.06.027,Gaze_Estimation_Final,2022.2.4,38.524669064563184,
C:\Users\calti\Documents\Masterarbeit\PsychoPy\img_exp\F04_06.jpg,img_exp/F04_06.jpg,F04,6,6.6,,,,,0,193,193,21,,,,,,,,,,,,,36,4.494894027709961,F,,,,,1016.6799359321594,1017.3608329296112,1017.3608329296112,1017.3608329296112,,1,w,27,2023-05-16_12h00.06.027,Gaze_Estimation_Final,2022.2.4,38.524669064563184,
C:\Users\calti\Documents\Masterarbeit\PsychoPy\img_exp\F02_06.jpg,img_exp/F02_06.jpg,F02,6,6.6,,,,,0,194,194,9,,,,,,,,,,,,,38,2.2984371185302734,F,,,,,1021.7282469272614,1022.4139318466187,1022.4139318466187,1022.4139318466187,,1,w,27,2023-05-16_12h00.06.027,Gaze_Estimation_Final,2022.2.4,38.524669064563184,
C:\Users\calti\Documents\Masterarbeit\PsychoPy\img_exp\F13_00.jpg,img_exp/F13_00.jpg,F13,0,0,,,,,0,195,195,66,,,,,,,,,,,,,1,1.1748230457305908,F,,,,,1024.5814640522003,1025.2656519412994,1025.2656519412994,1025.2656519412994,,1,w,27,2023-05-16_12h00.06.027,Gaze_Estimation_Final,2022.2.4,38.524669064563184,
C:\Users\calti\Documents\Masterarbeit\PsychoPy\img_exp\M04_08.jpg,img_exp/M04_08.jpg,M04,8,8.8,,,,,0,196,196,178,,,,,,,,,,,,,54,4.195138931274414,M,,,,,1026.309425830841,1027.0080790519714,1027.0080790519714,1027.0080790519714,,1,w,27,2023-05-16_12h00.06.027,Gaze_Estimation_Final,2022.2.4,38.524669064563184,
C:\Users\calti\Documents\Masterarbeit\PsychoPy\img_exp\M01_06.jpg,img_exp/M01_06.jpg,M01,6,6.6,,,,,0,197,197,159,,,,,,,,,,,,,23,6.287765026092529,M,,,,,1031.0575070381165,1031.7460839748383,1031.7460839748383,1031.7460839748383,,1,w,27,2023-05-16_12h00.06.027,Gaze_Estimation_Final,2022.2.4,38.524669064563184,
C:\Users\calti\Documents\Masterarbeit\PsychoPy\img_exp\F12_08.jpg,img_exp/F12_08.jpg,F12,8,8.8,,,,,0,198,198,64,,,,,,,,,,,,,43,3.5571670532226562,F,,,,,1037.9009718894958,1038.5868430137634,1038.5868430137634,1038.5868430137634,,1,w,27,2023-05-16_12h00.06.027,Gaze_Estimation_Final,2022.2.4,38.524669064563184,
C:\Users\calti\Documents\Masterarbeit\PsychoPy\img_exp\F20_06.jpg,img_exp/F20_06.jpg,F20,6,6.6,,,,,0,199,199,111,,,,,,,,,,,,,55,4.827237844467163,F,,,,,1042.0137159824371,1042.7142589092255,1042.7142589092255,1042.7142589092255,,1,w,27,2023-05-16_12h00.06.027,Gaze_Estimation_Final,2022.2.4,38.524669064563184,
C:\Users\calti\Documents\Masterarbeit\PsychoPy\img_exp\M04_04.jpg,img_exp/M04_04.jpg,M04,4,4.4,,,,,0,200,200,176,,,,,,,,,,,,,43,3.839493989944458,M,,,,,1047.3951318264008,1048.096403837204,1048.096403837204,1048.096403837204,,1,w,27,2023-05-16_12h00.06.027,Gaze_Estimation_Final,2022.2.4,38.524669064563184,
C:\Users\calti\Documents\Masterarbeit\PsychoPy\img_exp\F22_06.jpg,img_exp/F22_06.jpg,F22,6,6.6,,,,,0,201,201,123,,,,,,,,,,,,,51,2.5211780071258545,F,,,,,1051.7902920246124,1052.4737429618835,1052.4737429618835,1052.4737429618835,,1,w,27,2023-05-16_12h00.06.027,Gaze_Estimation_Final,2022.2.4,38.524669064563184,
C:\Users\calti\Documents\Masterarbeit\PsychoPy\img_exp\F26_02.jpg,img_exp/F26_02.jpg,F26,2,2.2,,,,,0,202,202,145,,,,,,,,,,,,,1,1.262181043624878,F,,,,,1054.8654959201813,1055.549290895462,1055.549290895462,1055.549290895462,,1,w,27,2023-05-16_12h00.06.027,Gaze_Estimation_Final,2022.2.4,38.524669064563184,
C:\Users\calti\Documents\Masterarbeit\PsychoPy\img_exp\F08_02.jpg,img_exp/F08_02.jpg,F08,2,2.2,,,,,0,203,203,37,,,,,,,,,,,,,1,1.2629380226135254,F,,,,,1056.6816039085388,1057.3654608726501,1057.3654608726501,1057.3654608726501,,1,w,27,2023-05-16_12h00.06.027,Gaze_Estimation_Final,2022.2.4,38.524669064563184,
C:\Users\calti\Documents\Masterarbeit\PsychoPy\img_exp\F03_08.jpg,img_exp/F03_08.jpg,F03,8,8.8,,,,,0,204,204,16,,,,,,,,,,,,,68,6.377943992614746,F,,,,,1058.4987950325012,1059.1865639686584,1059.1865639686584,1059.1865639686584,,1,w,27,2023-05-16_12h00.06.027,Gaze_Estimation_Final,2022.2.4,38.524669064563184,
C:\Users\calti\Documents\Masterarbeit\PsychoPy\img_exp\M13_00.jpg,img_exp/M13_00.jpg,M13,0,0,,,,,0,205,205,228,,,,,,,,,,,,,1,1.75276780128479,M,,,,,1065.4325439929962,1066.1122069358826,1066.1122069358826,1066.1122069358826,,1,w,27,2023-05-16_12h00.06.027,Gaze_Estimation_Final,2022.2.4,38.524669064563184,
C:\Users\calti\Documents\Masterarbeit\PsychoPy\img_exp\F10_00.jpg,img_exp/F10_00.jpg,F10,0,0,,,,,0,206,206,48,,,,,,,,,,,,,1,1.367276906967163,F,,,,,1067.738145828247,1068.4360918998718,1068.4360918998718,1068.4360918998718,,1,w,27,2023-05-16_12h00.06.027,Gaze_Estimation_Final,2022.2.4,38.524669064563184,
C:\Users\calti\Documents\Masterarbeit\PsychoPy\img_exp\M07_08.jpg,img_exp/M07_08.jpg,M07,8,8.8,,,,,0,207,207,196,,,,,,,,,,,,,49,6.199683904647827,M,,,,,1069.6583979129791,1070.3413820266724,1070.3413820266724,1070.3413820266724,,1,w,27,2023-05-16_12h00.06.027,Gaze_Estimation_Final,2022.2.4,38.524669064563184,
C:\Users\calti\Documents\Masterarbeit\PsychoPy\img_exp\M11_00.jpg,img_exp/M11_00.jpg,M11,0,0,,,,,0,208,208,216,,,,,,,,,,,,,1,1.5059239864349365,M,,,,,1076.411973953247,1077.1164808273315,1077.1164808273315,1077.1164808273315,,1,w,27,2023-05-16_12h00.06.027,Gaze_Estimation_Final,2022.2.4,38.524669064563184,
C:\Users\calti\Documents\Masterarbeit\PsychoPy\img_exp\F20_00.jpg,img_exp/F20_00.jpg,F20,0,0,,,,,0,209,209,108,,,,,,,,,,,,,5,3.0610709190368652,F,,,,,1078.473522901535,1079.1584930419922,1079.1584930419922,1079.1584930419922,,1,w,27,2023-05-16_12h00.06.027,Gaze_Estimation_Final,2022.2.4,38.524669064563184,
C:\Users\calti\Documents\Masterarbeit\PsychoPy\img_exp\F10_12.jpg,img_exp/F10_12.jpg,F10,12,13.3,,,,,0,210,210,53,,,,,,,,,,,,,59,4.715291976928711,F,,,,,1082.0885648727417,1082.7697219848633,1082.7697219848633,1082.7697219848633,,1,w,27,2023-05-16_12h00.06.027,Gaze_Estimation_Final,2022.2.4,38.524669064563184,
C:\Users\calti\Documents\Masterarbeit\PsychoPy\img_exp\F17_08.jpg,img_exp/F17_08.jpg,F17,8,8.8,,,,,0,211,211,94,,,,,,,,,,,,,42,3.1234569549560547,F,,,,,1087.3572878837585,1088.0606620311737,1088.0606620311737,1088.0606620311737,,1,w,27,2023-05-16_12h00.06.027,Gaze_Estimation_Final,2022.2.4,38.524669064563184,
C:\Users\calti\Documents\Masterarbeit\PsychoPy\img_exp\M04_08.jpg,img_exp/M04_08.jpg,M04,8,8.8,,,,,0,212,212,178,,,,,,,,,,,,,47,3.7765650749206543,M,,,,,1091.0343940258026,1091.71750497818,1091.71750497818,1091.71750497818,,1,w,27,2023-05-16_12h00.06.027,Gaze_Estimation_Final,2022.2.4,38.524669064563184,
C:\Users\calti\Documents\Masterarbeit\PsychoPy\img_exp\M08_12.jpg,img_exp/M08_12.jpg,M08,12,13.3,,,,,0,213,213,203,,,,,,,,,,,,,65,2.9786388874053955,M,,,,,1095.3634889125824,1096.0570449829102,1096.0570449829102,1096.0570449829102,,1,w,27,2023-05-16_12h00.06.027,Gaze_Estimation_Final,2022.2.4,38.524669064563184,
C:\Users\calti\Documents\Masterarbeit\PsychoPy\img_exp\M14_00.jpg,img_exp/M14_00.jpg,M14,0,0,,,,,0,214,214,234,,,,,,,,,,,,,1,2.380945920944214,M,,,,,1098.8967289924622,1099.5789659023285,1099.5789659023285,1099.5789659023285,,1,w,27,2023-05-16_12h00.06.027,Gaze_Estimation_Final,2022.2.4,38.524669064563184,
C:\Users\calti\Documents\Masterarbeit\PsychoPy\img_exp\M04_04.jpg,img_exp/M04_04.jpg,M04,4,4.4,,,,,0,215,215,176,,,,,,,,,,,,,34,2.610131025314331,M,,,,,1101.831109046936,1102.5155029296875,1102.5155029296875,1102.5155029296875,,1,w,27,2023-05-16_12h00.06.027,Gaze_Estimation_Final,2022.2.4,38.524669064563184,
C:\Users\calti\Documents\Masterarbeit\PsychoPy\img_exp\M08_12.jpg,img_exp/M08_12.jpg,M08,12,13.3,,,,,0,216,216,203,,,,,,,,,,,,,63,9.017054796218872,M,,,,,1104.9960968494415,1105.680510044098,1105.680510044098,1105.680510044098,,1,w,27,2023-05-16_12h00.06.027,Gaze_Estimation_Final,2022.2.4,38.524669064563184,
C:\Users\calti\Documents\Masterarbeit\PsychoPy\img_exp\M04_04.jpg,img_exp/M04_04.jpg,M04,4,4.4,,,,,0,217,217,176,,,,,,,,,,,,,44,3.1917309761047363,M,,,,,1114.5679769515991,1115.250834941864,1115.250834941864,1115.250834941864,,1,w,27,2023-05-16_12h00.06.027,Gaze_Estimation_Final,2022.2.4,38.524669064563184,
C:\Users\calti\Documents\Masterarbeit\PsychoPy\img_exp\F13_00.jpg,img_exp/F13_00.jpg,F13,0,0,,,,,0,218,218,66,,,,,,,,,,,,,1,1.5319578647613525,F,,,,,1118.313108921051,1118.998519897461,1118.998519897461,1118.998519897461,,1,w,27,2023-05-16_12h00.06.027,Gaze_Estimation_Final,2022.2.4,38.524669064563184,
C:\Users\calti\Documents\Masterarbeit\PsychoPy\img_exp\F07_04.jpg,img_exp/F07_04.jpg,F07,4,4.4,,,,,0,219,219,32,,,,,,,,,,,,,35,4.402422904968262,F,,,,,1120.398887872696,1121.0822479724884,1121.0822479724884,1121.0822479724884,,1,w,27,2023-05-16_12h00.06.027,Gaze_Estimation_Final,2022.2.4,38.524669064563184,
C:\Users\calti\Documents\Masterarbeit\PsychoPy\img_exp\F09_06.jpg,img_exp/F09_06.jpg,F09,6,6.6,,,,,0,220,220,45,,,,,,,,,,,,,47,4.014648914337158,F,,,,,1125.3557269573212,1126.047868013382,1126.047868013382,1126.047868013382,,1,w,27,2023-05-16_12h00.06.027,Gaze_Estimation_Final,2022.2.4,38.524669064563184,
C:\Users\calti\Documents\Masterarbeit\PsychoPy\img_exp\F16_02.jpg,img_exp/F16_02.jpg,F16,2,2.2,,,,,0,221,221,85,,,,,,,,,,,,,15,2.69953989982605,F,,,,,1129.9234008789062,1130.6069958209991,1130.6069958209991,1130.6069958209991,,1,w,27,2023-05-16_12h00.06.027,Gaze_Estimation_Final,2022.2.4,38.524669064563184,
C:\Users\calti\Documents\Masterarbeit\PsychoPy\img_exp\M12_06.jpg,img_exp/M12_06.jpg,M12,6,6.6,,,,,0,222,222,225,,,,,,,,,,,,,46,4.221238851547241,M,,,,,1133.176542043686,1133.8593108654022,1133.8593108654022,1133.8593108654022,,1,w,27,2023-05-16_12h00.06.027,Gaze_Estimation_Final,2022.2.4,38.524669064563184,
C:\Users\calti\Documents\Masterarbeit\PsychoPy\img_exp\F28_02.jpg,img_exp/F28_02.jpg,F28,2,2.2,,,,,0,223,223,151,,,,,,,,,,,,,1,1.4494249820709229,F,,,,,1137.9526410102844,1138.6448650360107,1138.6448650360107,1138.6448650360107,,1,w,27,2023-05-16_12h00.06.027,Gaze_Estimation_Final,2022.2.4,38.524669064563184,
C:\Users\calti\Documents\Masterarbeit\PsychoPy\img_exp\M14_08.jpg,img_exp/M14_08.jpg,M14,8,8.8,,,,,0,224,224,238,,,,,,,,,,,,,64,5.879809856414795,M,,,,,1139.9566340446472,1140.6380460262299,1140.6380460262299,1140.6380460262299,,1,w,27,2023-05-16_12h00.06.027,Gaze_Estimation_Final,2022.2.4,38.524669064563184,
C:\Users\calti\Documents\Masterarbeit\PsychoPy\img_exp\F22_06.jpg,img_exp/F22_06.jpg,F22,6,6.6,,,,,0,225,225,123,,,,,,,,,,,,,59,4.67787504196167,F,,,,,1146.390007019043,1147.0768349170685,1147.0768349170685,1147.0768349170685,,1,w,27,2023-05-16_12h00.06.027,Gaze_Estimation_Final,2022.2.4,38.524669064563184,
C:\Users\calti\Documents\Masterarbeit\PsychoPy\img_exp\M12_08.jpg,img_exp/M12_08.jpg,M12,8,8.8,,,,,0,226,226,226,,,,,,,,,,,,,50,3.5031819343566895,M,,,,,1151.62495303154,1152.306949853897,1152.306949853897,1152.306949853897,,1,w,27,2023-05-16_12h00.06.027,Gaze_Estimation_Final,2022.2.4,38.524669064563184,
C:\Users\calti\Documents\Masterarbeit\PsychoPy\img_exp\M10_04.jpg,img_exp/M10_04.jpg,M10,4,4.4,,,,,0,227,227,212,,,,,,,,,,,,,32,6.960798025131226,M,,,,,1155.6816279888153,1156.3630290031433,1156.3630290031433,1156.3630290031433,,1,w,27,2023-05-16_12h00.06.027,Gaze_Estimation_Final,2022.2.4,38.524669064563184,
C:\Users\calti\Documents\Masterarbeit\PsychoPy\img_exp\M05_04.jpg,img_exp/M05_04.jpg,M05,4,4.4,,,,,0,228,228,182,,,,,,,,,,,,,42,3.6076250076293945,M,,,,,1163.1963469982147,1163.8922698497772,1163.8922698497772,1163.8922698497772,,1,w,27,2023-05-16_12h00.06.027,Gaze_Estimation_Final,2022.2.4,38.524669064563184,
C:\Users\calti\Documents\Masterarbeit\PsychoPy\img_exp\M09_08.jpg,img_exp/M09_08.jpg,M09,8,8.8,,,,,0,229,229,208,,,,,,,,,,,,,52,4.276231050491333,M,,,,,1167.3587620258331,1168.04811501503,1168.04811501503,1168.04811501503,,1,w,27,2023-05-16_12h00.06.027,Gaze_Estimation_Final,2022.2.4,38.524669064563184,
C:\Users\calti\Documents\Masterarbeit\PsychoPy\img_exp\F10_04.jpg,img_exp/F10_04.jpg,F10,4,4.4,,,,,0,230,230,50,,,,,,,,,,,,,29,5.081660985946655,F,,,,,1172.190456867218,1172.8789839744568,1172.8789839744568,1172.8789839744568,,1,w,27,2023-05-16_12h00.06.027,Gaze_Estimation_Final,2022.2.4,38.524669064563184,
C:\Users\calti\Documents\Masterarbeit\PsychoPy\img_exp\F28_04.jpg,img_exp/F28_04.jpg,F28,4,4.4,,,,,0,231,231,152,,,,,,,,,,,,,18,5.388484001159668,F,,,,,1177.8268740177155,1178.5115900039673,1178.5115900039673,1178.5115900039673,,1,w,27,2023-05-16_12h00.06.027,Gaze_Estimation_Final,2022.2.4,38.524669064563184,
C:\Users\calti\Documents\Masterarbeit\PsychoPy\img_exp\F26_00.jpg,img_exp/F26_00.jpg,F26,0,0,,,,,0,232,232,144,,,,,,,,,,,,,1,1.4859380722045898,F,,,,,1183.771239042282,1184.4543459415436,1184.4543459415436,1184.4543459415436,,1,w,27,2023-05-16_12h00.06.027,Gaze_Estimation_Final,2022.2.4,38.524669064563184,
C:\Users\calti\Documents\Masterarbeit\PsychoPy\img_exp\F22_04.jpg,img_exp/F22_04.jpg,F22,4,4.4,,,,,0,233,233,122,,,,,,,,,,,,,41,2.8822360038757324,F,,,,,1185.810367822647,1186.4960119724274,1186.4960119724274,1186.4960119724274,,1,w,27,2023-05-16_12h00.06.027,Gaze_Estimation_Final,2022.2.4,38.524669064563184,
C:\Users\calti\Documents\Masterarbeit\PsychoPy\img_exp\F03_12.jpg,img_exp/F03_12.jpg,F03,12,13.3,,,,,0,234,234,17,,,,,,,,,,,,,74,6.117166042327881,F,,,,,1189.2475838661194,1189.9488818645477,1189.9488818645477,1189.9488818645477,,1,w,27,2023-05-16_12h00.06.027,Gaze_Estimation_Final,2022.2.4,38.524669064563184,
C:\Users\calti\Documents\Masterarbeit\PsychoPy\img_exp\F10_00.jpg,img_exp/F10_00.jpg,F10,0,0,,,,,0,235,235,48,,,,,,,,,,,,,1,1.3946740627288818,F,,,,,1195.9210710525513,1196.6025350093842,1196.6025350093842,1196.6025350093842,,1,w,27,2023-05-16_12h00.06.027,Gaze_Estimation_Final,2022.2.4,38.524669064563184,
C:\Users\calti\Documents\Masterarbeit\PsychoPy\img_exp\M09_00.jpg,img_exp/M09_00.jpg,M09,0,0,,,,,0,236,236,204,,,,,,,,,,,,,1,0.9027700424194336,M,,,,,1197.8694269657135,1198.5522220134735,1198.5522220134735,1198.5522220134735,,1,w,27,2023-05-16_12h00.06.027,Gaze_Estimation_Final,2022.2.4,38.524669064563184,
C:\Users\calti\Documents\Masterarbeit\PsychoPy\img_exp\M05_08.jpg,img_exp/M05_08.jpg,M05,8,8.8,,,,,0,237,237,184,,,,,,,,,,,,,58,4.717545986175537,M,,,,,1199.3255820274353,1200.0074269771576,1200.0074269771576,1200.0074269771576,,1,w,27,2023-05-16_12h00.06.027,Gaze_Estimation_Final,2022.2.4,38.524669064563184,
C:\Users\calti\Documents\Masterarbeit\PsychoPy\img_exp\M02_12.jpg,img_exp/M02_12.jpg,M02,12,13.3,,,,,0,238,238,167,,,,,,,,,,,,,73,8.975811958312988,M,,,,,1204.5970358848572,1205.2806420326233,1205.2806420326233,1205.2806420326233,,1,w,27,2023-05-16_12h00.06.027,Gaze_Estimation_Final,2022.2.4,38.524669064563184,
C:\Users\calti\Documents\Masterarbeit\PsychoPy\img_exp\F23_02.jpg,img_exp/F23_02.jpg,F23,2,2.2,,,,,0,239,239,127,,,,,,,,,,,,,1,1.6683590412139893,F,,,,,1214.1278538703918,1214.8132300376892,1214.8132300376892,1214.8132300376892,,1,w,27,2023-05-16_12h00.06.027,Gaze_Estimation_Final,2022.2.4,38.524669064563184,
C:\Users\calti\Documents\Masterarbeit\PsychoPy\img_exp\F24_04.jpg,img_exp/F24_04.jpg,F24,4,4.4,,,,,1,0,240,134,,,,,,,,,,,,,1,2.652024984359741,F,,,,,1216.3501288890839,1217.0342350006104,1217.0342350006104,1217.0342350006104,,1,w,27,2023-05-16_12h00.06.027,Gaze_Estimation_Final,2022.2.4,38.524669064563184,
C:\Users\calti\Documents\Masterarbeit\PsychoPy\img_exp\F19_00.jpg,img_exp/F19_00.jpg,F19,0,0,,,,,1,1,241,102,,,,,,,,,,,,,1,1.130713939666748,F,,,,,1219.5567059516907,1220.2429180145264,1220.2429180145264,1220.2429180145264,,1,w,27,2023-05-16_12h00.06.027,Gaze_Estimation_Final,2022.2.4,38.524669064563184,
C:\Users\calti\Documents\Masterarbeit\PsychoPy\img_exp\M10_02.jpg,img_exp/M10_02.jpg,M10,2,2.2,,,,,1,2,242,211,,,,,,,,,,,,,16,2.429248094558716,M,,,,,1221.2421469688416,1221.9251918792725,1221.9251918792725,1221.9251918792725,,1,w,27,2023-05-16_12h00.06.027,Gaze_Estimation_Final,2022.2.4,38.524669064563184,
C:\Users\calti\Documents\Masterarbeit\PsychoPy\img_exp\F03_02.jpg,img_exp/F03_02.jpg,F03,2,2.2,,,,,1,3,243,13,,,,,,,,,,,,,8,4.682203769683838,F,,,,,1224.2258520126343,1224.9231288433075,1224.9231288433075,1224.9231288433075,,1,w,27,2023-05-16_12h00.06.027,Gaze_Estimation_Final,2022.2.4,38.524669064563184,
C:\Users\calti\Documents\Masterarbeit\PsychoPy\img_exp\M03_00.jpg,img_exp/M03_00.jpg,M03,0,0,,,,,1,4,244,168,,,,,,,,,,,,,1,1.6176629066467285,M,,,,,1229.4619100093842,1230.1440320014954,1230.1440320014954,1230.1440320014954,,1,w,27,2023-05-16_12h00.06.027,Gaze_Estimation_Final,2022.2.4,38.524669064563184,
C:\Users\calti\Documents\Masterarbeit\PsychoPy\img_exp\M05_02.jpg,img_exp/M05_02.jpg,M05,2,2.2,,,,,1,5,245,181,,,,,,,,,,,,,1,4.539339065551758,M,,,,,1231.632539987564,1232.3249959945679,1232.3249959945679,1232.3249959945679,,1,w,27,2023-05-16_12h00.06.027,Gaze_Estimation_Final,2022.2.4,38.524669064563184,
C:\Users\calti\Documents\Masterarbeit\PsychoPy\img_exp\F18_08.jpg,img_exp/F18_08.jpg,F18,8,8.8,,,,,1,6,246,100,,,,,,,,,,,,,48,3.733096122741699,F,,,,,1236.7253029346466,1237.4091730117798,1237.4091730117798,1237.4091730117798,,1,w,27,2023-05-16_12h00.06.027,Gaze_Estimation_Final,2022.2.4,38.524669064563184,
C:\Users\calti\Documents\Masterarbeit\PsychoPy\img_exp\F14_04.jpg,img_exp/F14_04.jpg,F14,4,4.4,,,,,1,7,247,74,,,,,,,,,,,,,19,2.4735488891601562,F,,,,,1241.0118010044098,1241.6923999786377,1241.6923999786377,1241.6923999786377,,1,w,27,2023-05-16_12h00.06.027,Gaze_Estimation_Final,2022.2.4,38.524669064563184,
C:\Users\calti\Documents\Masterarbeit\PsychoPy\img_exp\F17_00.jpg,img_exp/F17_00.jpg,F17,0,0,,,,,1,8,248,90,,,,,,,,,,,,,1,3.3705930709838867,F,,,,,1244.0379569530487,1244.7262079715729,1244.7262079715729,1244.7262079715729,,1,w,27,2023-05-16_12h00.06.027,Gaze_Estimation_Final,2022.2.4,38.524669064563184,
C:\Users\calti\Documents\Masterarbeit\PsychoPy\img_exp\M10_02.jpg,img_exp/M10_02.jpg,M10,2,2.2,,,,,1,9,249,211,,,,,,,,,,,,,16,2.6503820419311523,M,,,,,1247.9610848426819,1248.6432058811188,1248.6432058811188,1248.6432058811188,,1,w,27,2023-05-16_12h00.06.027,Gaze_Estimation_Final,2022.2.4,38.524669064563184,
C:\Users\calti\Documents\Masterarbeit\PsychoPy\img_exp\F10_04.jpg,img_exp/F10_04.jpg,F10,4,4.4,,,,,1,10,250,50,,,,,,,,,,,,,26,3.2845418453216553,F,,,,,1251.1665790081024,1251.8469738960266,1251.8469738960266,1251.8469738960266,,1,w,27,2023-05-16_12h00.06.027,Gaze_Estimation_Final,2022.2.4,38.524669064563184,
C:\Users\calti\Documents\Masterarbeit\PsychoPy\img_exp\M02_06.jpg,img_exp/M02_06.jpg,M02,6,6.6,,,,,1,11,251,165,,,,,,,,,,,,,35,2.6735999584198,M,,,,,1255.0032839775085,1255.703801870346,1255.703801870346,1255.703801870346,,1,w,27,2023-05-16_12h00.06.027,Gaze_Estimation_Final,2022.2.4,38.524669064563184,
C:\Users\calti\Documents\Masterarbeit\PsychoPy\img_exp\F12_00.jpg,img_exp/F12_00.jpg,F12,0,0,,,,,1,12,252,60,,,,,,,,,,,,,1,1.2181589603424072,F,,,,,1258.233922958374,1258.9202008247375,1258.9202008247375,1258.9202008247375,,1,w,27,2023-05-16_12h00.06.027,Gaze_Estimation_Final,2022.2.4,38.524669064563184,
C:\Users\calti\Documents\Masterarbeit\PsychoPy\img_exp\M06_06.jpg,img_exp/M06_06.jpg,M06,6,6.6,,,,,1,13,253,189,,,,,,,,,,,,,41,3.508157968521118,M,,,,,1260.0072300434113,1260.6897339820862,1260.6897339820862,1260.6897339820862,,1,w,27,2023-05-16_12h00.06.027,Gaze_Estimation_Final,2022.2.4,38.524669064563184,
C:\Users\calti\Documents\Masterarbeit\PsychoPy\img_exp\F25_04.jpg,img_exp/F25_04.jpg,F25,4,4.4,,,,,1,14,254,140,,,,,,,,,,,,,24,2.479478120803833,F,,,,,1264.0700180530548,1264.756490945816,1264.756490945816,1264.756490945816,,1,w,27,2023-05-16_12h00.06.027,Gaze_Estimation_Final,2022.2.4,38.524669064563184,
C:\Users\calti\Documents\Masterarbeit\PsychoPy\img_exp\M12_02.jpg,img_exp/M12_02.jpg,M12,2,2.2,,,,,1,15,255,223,,,,,,,,,,,,,11,3.241068124771118,M,,,,,1267.1046350002289,1267.7870218753815,1267.7870218753815,1267.7870218753815,,1,w,27,2023-05-16_12h00.06.027,Gaze_Estimation_Final,2022.2.4,38.524669064563184,
C:\Users\calti\Documents\Masterarbeit\PsychoPy\img_exp\F16_00.jpg,img_exp/F16_00.jpg,F16,0,0,,,,,1,16,256,84,,,,,,,,,,,,,1,2.296631097793579,F,,,,,1270.900358915329,1271.5859479904175,1271.5859479904175,1271.5859479904175,,1,w,27,2023-05-16_12h00.06.027,Gaze_Estimation_Final,2022.2.4,38.524669064563184,
C:\Users\calti\Documents\Masterarbeit\PsychoPy\img_exp\M12_06.jpg,img_exp/M12_06.jpg,M12,6,6.6,,,,,1,17,257,225,,,,,,,,,,,,,57,4.487228155136108,M,,,,,1273.7518799304962,1274.4365689754486,1274.4365689754486,1274.4365689754486,,1,w,27,2023-05-16_12h00.06.027,Gaze_Estimation_Final,2022.2.4,38.524669064563184,
C:\Users\calti\Documents\Masterarbeit\PsychoPy\img_exp\M11_02.jpg,img_exp/M11_02.jpg,M11,2,2.2,,,,,1,18,258,217,,,,,,,,,,,,,2,4.312114953994751,M,,,,,1278.7962319850922,1279.4840068817139,1279.4840068817139,1279.4840068817139,,1,w,27,2023-05-16_12h00.06.027,Gaze_Estimation_Final,2022.2.4,38.524669064563184,
C:\Users\calti\Documents\Masterarbeit\PsychoPy\img_exp\F07_12.jpg,img_exp/F07_12.jpg,F07,12,13.3,,,,,1,19,259,35,,,,,,,,,,,,,65,3.955350875854492,F,,,,,1283.6618340015411,1284.3435590267181,1284.3435590267181,1284.3435590267181,,1,w,27,2023-05-16_12h00.06.027,Gaze_Estimation_Final,2022.2.4,38.524669064563184,
C:\Users\calti\Documents\Masterarbeit\PsychoPy\img_exp\F19_04.jpg,img_exp/F19_04.jpg,F19,4,4.4,,,,,1,20,260,104,,,,,,,,,,,,,14,2.8329639434814453,F,,,,,1288.1700739860535,1288.8543980121613,1288.8543980121613,1288.8543980121613,,1,w,27,2023-05-16_12h00.06.027,Gaze_Estimation_Final,2022.2.4,38.524669064563184,
C:\Users\calti\Documents\Masterarbeit\PsychoPy\img_exp\M05_00.jpg,img_exp/M05_00.jpg,M05,0,0,,,,,1,21,261,180,,,,,,,,,,,,,1,1.25956392288208,M,,,,,1291.5548858642578,1292.238345861435,1292.238345861435,1292.238345861435,,1,w,27,2023-05-16_12h00.06.027,Gaze_Estimation_Final,2022.2.4,38.524669064563184,
C:\Users\calti\Documents\Masterarbeit\PsychoPy\img_exp\M10_02.jpg,img_exp/M10_02.jpg,M10,2,2.2,,,,,1,22,262,211,,,,,,,,,,,,,10,2.971553087234497,M,,,,,1293.370770931244,1294.0545239448547,1294.0545239448547,1294.0545239448547,,1,w,27,2023-05-16_12h00.06.027,Gaze_Estimation_Final,2022.2.4,38.524669064563184,
C:\Users\calti\Documents\Masterarbeit\PsychoPy\img_exp\F13_02.jpg,img_exp/F13_02.jpg,F13,2,2.2,,,,,1,23,263,67,,,,,,,,,,,,,1,1.9876229763031006,F,,,,,1296.897115945816,1297.5840020179749,1297.5840020179749,1297.5840020179749,,1,w,27,2023-05-16_12h00.06.027,Gaze_Estimation_Final,2022.2.4,38.524669064563184,
C:\Users\calti\Documents\Masterarbeit\PsychoPy\img_exp\F13_04.jpg,img_exp/F13_04.jpg,F13,4,4.4,,,,,1,24,264,68,,,,,,,,,,,,,1,1.060370922088623,F,,,,,1299.4405498504639,1300.1487338542938,1300.1487338542938,1300.1487338542938,,1,w,27,2023-05-16_12h00.06.027,Gaze_Estimation_Final,2022.2.4,38.524669064563184,
C:\Users\calti\Documents\Masterarbeit\PsychoPy\img_exp\F25_12.jpg,img_exp/F25_12.jpg,F25,12,13.3,,,,,1,25,265,143,,,,,,,,,,,,,86,5.481107950210571,F,,,,,1301.056941986084,1301.7416088581085,1301.7416088581085,1301.7416088581085,,1,w,27,2023-05-16_12h00.06.027,Gaze_Estimation_Final,2022.2.4,38.524669064563184,
C:\Users\calti\Documents\Masterarbeit\PsychoPy\img_exp\M10_12.jpg,img_exp/M10_12.jpg,M10,12,13.3,,,,,1,26,266,215,,,,,,,,,,,,,85,4.819796085357666,M,,,,,1307.092087984085,1307.7904698848724,1307.7904698848724,1307.7904698848724,,1,w,27,2023-05-16_12h00.06.027,Gaze_Estimation_Final,2022.2.4,38.524669064563184,
C:\Users\calti\Documents\Masterarbeit\PsychoPy\img_exp\F01_12.jpg,img_exp/F01_12.jpg,F01,12,13.3,,,,,1,27,267,5,,,,,,,,,,,,,85,5.5774078369140625,F,,,,,1312.4667830467224,1313.150635957718,1313.150635957718,1313.150635957718,,1,w,27,2023-05-16_12h00.06.027,Gaze_Estimation_Final,2022.2.4,38.524669064563184,
C:\Users\calti\Documents\Masterarbeit\PsychoPy\img_exp\M04_12.jpg,img_exp/M04_12.jpg,M04,12,13.3,,,,,1,28,268,179,,,,,,,,,,,,,89,9.479672908782959,M,,,,,1318.5971059799194,1319.2911539077759,1319.2911539077759,1319.2911539077759,,1,w,27,2023-05-16_12h00.06.027,Gaze_Estimation_Final,2022.2.4,38.524669064563184,
C:\Users\calti\Documents\Masterarbeit\PsychoPy\img_exp\M10_12.jpg,img_exp/M10_12.jpg,M10,12,13.3,,,,,1,29,269,215,,,,,,,,,,,,,89,2.2514731884002686,M,,,,,1328.6291048526764,1329.317029953003,1329.317029953003,1329.317029953003,,1,w,27,2023-05-16_12h00.06.027,Gaze_Estimation_Final,2022.2.4,38.524669064563184,
C:\Users\calti\Documents\Masterarbeit\PsychoPy\img_exp\F07_00.jpg,img_exp/F07_00.jpg,F07,0,0,,,,,1,30,270,30,,,,,,,,,,,,,1,1.7993090152740479,F,,,,,1331.4408249855042,1332.1237819194794,1332.1237819194794,1332.1237819194794,,1,w,27,2023-05-16_12h00.06.027,Gaze_Estimation_Final,2022.2.4,38.524669064563184,
C:\Users\calti\Documents\Masterarbeit\PsychoPy\img_exp\F07_12.jpg,img_exp/F07_12.jpg,F07,12,13.3,,,,,1,31,271,35,,,,,,,,,,,,,71,4.315079212188721,F,,,,,1333.7932260036469,1334.4774479866028,1334.4774479866028,1334.4774479866028,,1,w,27,2023-05-16_12h00.06.027,Gaze_Estimation_Final,2022.2.4,38.524669064563184,
C:\Users\calti\Documents\Masterarbeit\PsychoPy\img_exp\F11_00.jpg,img_exp/F11_00.jpg,F11,0,0,,,,,1,32,272,54,,,,,,,,,,,,,1,1.4577410221099854,F,,,,,1338.6637909412384,1339.362123966217,1339.362123966217,1339.362123966217,,1,w,27,2023-05-16_12h00.06.027,Gaze_Estimation_Final,2022.2.4,38.524669064563184,
C:\Users\calti\Documents\Masterarbeit\PsychoPy\img_exp\F03_12.jpg,img_exp/F03_12.jpg,F03,12,13.3,,,,,1,33,273,17,,,,,,,,,,,,,80,7.677104949951172,F,,,,,1340.6741638183594,1341.3600158691406,1341.3600158691406,1341.3600158691406,,1,w,27,2023-05-16_12h00.06.027,Gaze_Estimation_Final,2022.2.4,38.524669064563184,
C:\Users\calti\Documents\Masterarbeit\PsychoPy\img_exp\F20_06.jpg,img_exp/F20_06.jpg,F20,6,6.6,,,,,1,34,274,111,,,,,,,,,,,,,56,13.152227878570557,F,,,,,1348.9056169986725,1349.5894060134888,1349.5894060134888,1349.5894060134888,,1,w,27,2023-05-16_12h00.06.027,Gaze_Estimation_Final,2022.2.4,38.524669064563184,
C:\Users\calti\Documents\Masterarbeit\PsychoPy\img_exp\M02_00.jpg,img_exp/M02_00.jpg,M02,0,0,,,,,1,35,275,162,,,,,,,,,,,,,1,1.1711890697479248,M,,,,,1362.6101999282837,1363.2935628890991,1363.2935628890991,1363.2935628890991,,1,w,27,2023-05-16_12h00.06.027,Gaze_Estimation_Final,2022.2.4,38.524669064563184,
C:\Users\calti\Documents\Masterarbeit\PsychoPy\img_exp\F19_08.jpg,img_exp/F19_08.jpg,F19,8,8.8,,,,,1,36,276,106,,,,,,,,,,,,,41,8.041748046875,F,,,,,1364.3375380039215,1365.0339138507843,1365.0339138507843,1365.0339138507843,,1,w,27,2023-05-16_12h00.06.027,Gaze_Estimation_Final,2022.2.4,38.524669064563184,
C:\Users\calti\Documents\Masterarbeit\PsychoPy\img_exp\F11_08.jpg,img_exp/F11_08.jpg,F11,8,8.8,,,,,1,37,277,58,,,,,,,,,,,,,59,5.163428068161011,F,,,,,1372.9328899383545,1373.6140220165253,1373.6140220165253,1373.6140220165253,,1,w,27,2023-05-16_12h00.06.027,Gaze_Estimation_Final,2022.2.4,38.524669064563184,
C:\Users\calti\Documents\Masterarbeit\PsychoPy\img_exp\F03_06.jpg,img_exp/F03_06.jpg,F03,6,6.6,,,,,1,38,278,15,,,,,,,,,,,,,50,4.3097710609436035,F,,,,,1378.6487588882446,1379.3268840312958,1379.3268840312958,1379.3268840312958,,1,w,27,2023-05-16_12h00.06.027,Gaze_Estimation_Final,2022.2.4,38.524669064563184,
C:\Users\calti\Documents\Masterarbeit\PsychoPy\img_exp\F13_12.jpg,img_exp/F13_12.jpg,F13,12,13.3,,,,,1,39,279,71,,,,,,,,,,,,,55,2.623992919921875,F,,,,,1383.5118329524994,1384.2086520195007,1384.2086520195007,1384.2086520195007,,1,w,27,2023-05-16_12h00.06.027,Gaze_Estimation_Final,2022.2.4,38.524669064563184,
C:\Users\calti\Documents\Masterarbeit\PsychoPy\img_exp\F05_08.jpg,img_exp/F05_08.jpg,F05,8,8.8,,,,,1,40,280,28,,,,,,,,,,,,,43,4.9456610679626465,F,,,,,1386.6908638477325,1387.3669619560242,1387.3669619560242,1387.3669619560242,,1,w,27,2023-05-16_12h00.06.027,Gaze_Estimation_Final,2022.2.4,38.524669064563184,
C:\Users\calti\Documents\Masterarbeit\PsychoPy\img_exp\M03_00.jpg,img_exp/M03_00.jpg,M03,0,0,,,,,1,41,281,168,,,,,,,,,,,,,1,1.2993528842926025,M,,,,,1392.1906130313873,1392.8681290149689,1392.8681290149689,1392.8681290149689,,1,w,27,2023-05-16_12h00.06.027,Gaze_Estimation_Final,2022.2.4,38.524669064563184,
C:\Users\calti\Documents\Masterarbeit\PsychoPy\img_exp\F28_02.jpg,img_exp/F28_02.jpg,F28,2,2.2,,,,,1,42,282,151,,,,,,,,,,,,,1,1.2100741863250732,F,,,,,1394.0441279411316,1394.7194929122925,1394.7194929122925,1394.7194929122925,,1,w,27,2023-05-16_12h00.06.027,Gaze_Estimation_Final,2022.2.4,38.524669064563184,
C:\Users\calti\Documents\Masterarbeit\PsychoPy\img_exp\F16_04.jpg,img_exp/F16_04.jpg,F16,4,4.4,,,,,1,43,283,86,,,,,,,,,,,,,16,2.3796210289001465,F,,,,,1395.806748867035,1396.4870100021362,1396.4870100021362,1396.4870100021362,,1,w,27,2023-05-16_12h00.06.027,Gaze_Estimation_Final,2022.2.4,38.524669064563184,
C:\Users\calti\Documents\Masterarbeit\PsychoPy\img_exp\F28_12.jpg,img_exp/F28_12.jpg,F28,12,13.3,,,,,1,44,284,155,,,,,,,,,,,,,60,5.158390998840332,F,,,,,1398.7414569854736,1399.418370962143,1399.418370962143,1399.418370962143,,1,w,27,2023-05-16_12h00.06.027,Gaze_Estimation_Final,2022.2.4,38.524669064563184,
C:\Users\calti\Documents\Masterarbeit\PsychoPy\img_exp\M11_00.jpg,img_exp/M11_00.jpg,M11,0,0,,,,,1,45,285,216,,,,,,,,,,,,,1,1.8831510543823242,M,,,,,1404.4537909030914,1405.1318390369415,1405.1318390369415,1405.1318390369415,,1,w,27,2023-05-16_12h00.06.027,Gaze_Estimation_Final,2022.2.4,38.524669064563184,
C:\Users\calti\Documents\Masterarbeit\PsychoPy\img_exp\M05_12.jpg,img_exp/M05_12.jpg,M05,12,13.3,,,,,1,46,286,185,,,,,,,,,,,,,63,4.217688083648682,M,,,,,1406.891345024109,1407.5660710334778,1407.5660710334778,1407.5660710334778,,1,w,27,2023-05-16_12h00.06.027,Gaze_Estimation_Final,2022.2.4,38.524669064563184,
C:\Users\calti\Documents\Masterarbeit\PsychoPy\img_exp\F17_00.jpg,img_exp/F17_00.jpg,F17,0,0,,,,,1,47,287,90,,,,,,,,,,,,,1,1.1664009094238281,F,,,,,1411.6616139411926,1412.3401229381561,1412.3401229381561,1412.3401229381561,,1,w,27,2023-05-16_12h00.06.027,Gaze_Estimation_Final,2022.2.4,38.524669064563184,
C:\Users\calti\Documents\Masterarbeit\PsychoPy\img_exp\M02_00.jpg,img_exp/M02_00.jpg,M02,0,0,,,,,1,48,288,162,,,,,,,,,,,,,1,1.1210358142852783,M,,,,,1413.382295846939,1414.0584080219269,1414.0584080219269,1414.0584080219269,,1,w,27,2023-05-16_12h00.06.027,Gaze_Estimation_Final,2022.2.4,38.524669064563184,
C:\Users\calti\Documents\Masterarbeit\PsychoPy\img_exp\M13_04.jpg,img_exp/M13_04.jpg,M13,4,4.4,,,,,1,49,289,230,,,,,,,,,,,,,20,2.2998671531677246,M,,,,,1415.0569319725037,1415.7409999370575,1415.7409999370575,1415.7409999370575,,1,w,27,2023-05-16_12h00.06.027,Gaze_Estimation_Final,2022.2.4,38.524669064563184,
C:\Users\calti\Documents\Masterarbeit\PsychoPy\img_exp\F18_02.jpg,img_exp/F18_02.jpg,F18,2,2.2,,,,,1,50,290,97,,,,,,,,,,,,,1,1.1235179901123047,F,,,,,1417.9109499454498,1418.5882029533386,1418.5882029533386,1418.5882029533386,,1,w,27,2023-05-16_12h00.06.027,Gaze_Estimation_Final,2022.2.4,38.524669064563184,
C:\Users\calti\Documents\Masterarbeit\PsychoPy\img_exp\M04_00.jpg,img_exp/M04_00.jpg,M04,0,0,,,,,1,51,291,174,,,,,,,,,,,,,1,0.9544429779052734,M,,,,,1419.587270975113,1420.2781229019165,1420.2781229019165,1420.2781229019165,,1,w,27,2023-05-16_12h00.06.027,Gaze_Estimation_Final,2022.2.4,38.524669064563184,
C:\Users\calti\Documents\Masterarbeit\PsychoPy\img_exp\M06_02.jpg,img_exp/M06_02.jpg,M06,2,2.2,,,,,1,52,292,187,,,,,,,,,,,,,24,3.920417070388794,M,,,,,1421.096704006195,1421.772157907486,1421.772157907486,1421.772157907486,,1,w,27,2023-05-16_12h00.06.027,Gaze_Estimation_Final,2022.2.4,38.524669064563184,
C:\Users\calti\Documents\Masterarbeit\PsychoPy\img_exp\F15_06.jpg,img_exp/F15_06.jpg,F15,6,6.6,,,,,1,53,293,81,,,,,,,,,,,,,34,3.1435329914093018,F,,,,,1425.570688009262,1426.2482829093933,1426.2482829093933,1426.2482829093933,,1,w,27,2023-05-16_12h00.06.027,Gaze_Estimation_Final,2022.2.4,38.524669064563184,
C:\Users\calti\Documents\Masterarbeit\PsychoPy\img_exp\F18_00.jpg,img_exp/F18_00.jpg,F18,0,0,,,,,1,54,294,96,,,,,,,,,,,,,1,1.2554237842559814,F,,,,,1429.268501996994,1429.9469029903412,1429.9469029903412,1429.9469029903412,,1,w,27,2023-05-16_12h00.06.027,Gaze_Estimation_Final,2022.2.4,38.524669064563184,
C:\Users\calti\Documents\Masterarbeit\PsychoPy\img_exp\F23_00.jpg,img_exp/F23_00.jpg,F23,0,0,,,,,1,55,295,126,,,,,,,,,,,,,1,0.9429559707641602,F,,,,,1431.0784258842468,1431.7578728199005,1431.7578728199005,1431.7578728199005,,1,w,27,2023-05-16_12h00.06.027,Gaze_Estimation_Final,2022.2.4,38.524669064563184,
C:\Users\calti\Documents\Masterarbeit\PsychoPy\img_exp\F10_12.jpg,img_exp/F10_12.jpg,F10,12,13.3,,,,,1,56,296,53,,,,,,,,,,,,,87,3.9464430809020996,F,,,,,1432.5756199359894,1433.2517428398132,1433.2517428398132,1433.2517428398132,,1,w,27,2023-05-16_12h00.06.027,Gaze_Estimation_Final,2022.2.4,38.524669064563184,
C:\Users\calti\Documents\Masterarbeit\PsychoPy\img_exp\F12_06.jpg,img_exp/F12_06.jpg,F12,6,6.6,,,,,1,57,297,63,,,,,,,,,,,,,47,3.4649500846862793,F,,,,,1437.076555967331,1437.7552280426025,1437.7552280426025,1437.7552280426025,,1,w,27,2023-05-16_12h00.06.027,Gaze_Estimation_Final,2022.2.4,38.524669064563184,
C:\Users\calti\Documents\Masterarbeit\PsychoPy\img_exp\F14_02.jpg,img_exp/F14_02.jpg,F14,2,2.2,,,,,1,58,298,73,,,,,,,,,,,,,1,1.3435618877410889,F,,,,,1441.0950360298157,1441.7711720466614,1441.7711720466614,1441.7711720466614,,1,w,27,2023-05-16_12h00.06.027,Gaze_Estimation_Final,2022.2.4,38.524669064563184,
C:\Users\calti\Documents\Masterarbeit\PsychoPy\img_exp\F28_00.jpg,img_exp/F28_00.jpg,F28,0,0,,,,,1,59,299,150,,,,,,,,,,,,,1,1.2997338771820068,F,,,,,1442.9926309585571,1443.668391942978,1443.668391942978,1443.668391942978,,1,w,27,2023-05-16_12h00.06.027,Gaze_Estimation_Final,2022.2.4,38.524669064563184,
C:\Users\calti\Documents\Masterarbeit\PsychoPy\img_exp\F11_12.jpg,img_exp/F11_12.jpg,F11,12,13.3,,,,,1,60,300,59,,,,,,,,,,,,,81,3.3732659816741943,F,,,,,1444.8445010185242,1445.5294289588928,1445.5294289588928,1445.5294289588928,,1,w,27,2023-05-16_12h00.06.027,Gaze_Estimation_Final,2022.2.4,38.524669064563184,
C:\Users\calti\Documents\Masterarbeit\PsychoPy\img_exp\M13_00.jpg,img_exp/M13_00.jpg,M13,0,0,,,,,1,61,301,228,,,,,,,,,,,,,1,1.2091138362884521,M,,,,,1448.770264863968,1449.4448008537292,1449.4448008537292,1449.4448008537292,,1,w,27,2023-05-16_12h00.06.027,Gaze_Estimation_Final,2022.2.4,38.524669064563184,
C:\Users\calti\Documents\Masterarbeit\PsychoPy\img_exp\F24_08.jpg,img_exp/F24_08.jpg,F24,8,8.8,,,,,1,62,302,136,,,,,,,,,,,,,42,2.646631956100464,F,,,,,1450.531517982483,1451.2068638801575,1451.2068638801575,1451.2068638801575,,1,w,27,2023-05-16_12h00.06.027,Gaze_Estimation_Final,2022.2.4,38.524669064563184,
C:\Users\calti\Documents\Masterarbeit\PsychoPy\img_exp\F13_04.jpg,img_exp/F13_04.jpg,F13,4,4.4,,,,,1,63,303,68,,,,,,,,,,,,,13,2.7417731285095215,F,,,,,1453.7305219173431,1454.408987045288,1454.408987045288,1454.408987045288,,1,w,27,2023-05-16_12h00.06.027,Gaze_Estimation_Final,2022.2.4,38.524669064563184,
C:\Users\calti\Documents\Masterarbeit\PsychoPy\img_exp\M03_04.jpg,img_exp/M03_04.jpg,M03,4,4.4,,,,,1,64,304,170,,,,,,,,,,,,,32,2.756546974182129,M,,,,,1457.0249428749084,1457.7194650173187,1457.7194650173187,1457.7194650173187,,1,w,27,2023-05-16_12h00.06.027,Gaze_Estimation_Final,2022.2.4,38.524669064563184,
C:\Users\calti\Documents\Masterarbeit\PsychoPy\img_exp\M02_06.jpg,img_exp/M02_06.jpg,M02,6,6.6,,,,,1,65,305,165,,,,,,,,,,,,,48,3.0534000396728516,M,,,,,1460.3354728221893,1461.010869026184,1461.010869026184,1461.010869026184,,1,w,27,2023-05-16_12h00.06.027,Gaze_Estimation_Final,2022.2.4,38.524669064563184,
C:\Users\calti\Documents\Masterarbeit\PsychoPy\img_exp\M08_06.jpg,img_exp/M08_06.jpg,M08,6,6.6,,,,,1,66,306,201,,,,,,,,,,,,,56,6.6052680015563965,M,,,,,1463.941419839859,1464.6300449371338,1464.6300449371338,1464.6300449371338,,1,w,27,2023-05-16_12h00.06.027,Gaze_Estimation_Final,2022.2.4,38.524669064563184,
C:\Users\calti\Documents\Masterarbeit\PsychoPy\img_exp\F02_08.jpg,img_exp/F02_08.jpg,F02,8,8.8,,,,,1,67,307,10,,,,,,,,,,,,,67,6.298769950866699,F,,,,,1471.100445985794,1471.7917699813843,1471.7917699813843,1471.7917699813843,,1,w,27,2023-05-16_12h00.06.027,Gaze_Estimation_Final,2022.2.4,38.524669064563184,
C:\Users\calti\Documents\Masterarbeit\PsychoPy\img_exp\M10_12.jpg,img_exp/M10_12.jpg,M10,12,13.3,,,,,1,68,308,215,,,,,,,,,,,,,77,3.5027830600738525,M,,,,,1477.9528360366821,1478.6285648345947,1478.6285648345947,1478.6285648345947,,1,w,27,2023-05-16_12h00.06.027,Gaze_Estimation_Final,2022.2.4,38.524669064563184,
C:\Users\calti\Documents\Masterarbeit\PsychoPy\img_exp\F14_02.jpg,img_exp/F14_02.jpg,F14,2,2.2,,,,,1,69,309,73,,,,,,,,,,,,,1,1.5238051414489746,F,,,,,1482.009742975235,1482.6852869987488,1482.6852869987488,1482.6852869987488,,1,w,27,2023-05-16_12h00.06.027,Gaze_Estimation_Final,2022.2.4,38.524669064563184,
C:\Users\calti\Documents\Masterarbeit\PsychoPy\img_exp\F03_06.jpg,img_exp/F03_06.jpg,F03,6,6.6,,,,,1,70,310,15,,,,,,,,,,,,,49,5.969938039779663,F,,,,,1484.0862970352173,1484.7621839046478,1484.7621839046478,1484.7621839046478,,1,w,27,2023-05-16_12h00.06.027,Gaze_Estimation_Final,2022.2.4,38.524669064563184,
C:\Users\calti\Documents\Masterarbeit\PsychoPy\img_exp\F17_02.jpg,img_exp/F17_02.jpg,F17,2,2.2,,,,,1,71,311,91,,,,,,,,,,,,,1,1.390300989151001,F,,,,,1490.6073458194733,1491.2837619781494,1491.2837619781494,1491.2837619781494,,1,w,27,2023-05-16_12h00.06.027,Gaze_Estimation_Final,2022.2.4,38.524669064563184,
