img_path,img_rel_path,looker,visAng,visAngCorr,trials_training.thisRepN,trials_training.thisTrialN,trials_training.thisN,trials_training.thisIndex,trials_exp.thisRepN,trials_exp.thisTrialN,trials_exp.thisN,trials_exp.thisIndex,inst_exp.started,inst_exp_continue.started,kb_inst_start.started,inst_exp.stopped,inst_train.started,inst_train_continue.started,key_inst_train.started,inst_train.stopped,train_noise.started,train_noise.stopped,img_training.started,judgement.started,answer,RT,looker_gender,instr_ex.started,instr_ex_cont.started,kb_inst_exp.started,instr_ex.stopped,exp_noise.started,exp_noise.stopped,img_exp.started,judgement_exp.started,text.started,participant,subject_gender,subject_age,date,expName,psychopyVersion,frameRate,
C:\Users\calti\Documents\Masterarbeit\PsychoPy\img_train\M02_12.jpg,img_train/M02_12.jpg,M02,12,,0,0,0,4,,,,,34.65993285179138,37.6576988697052,37.6576988697052,37.686338901519775,63.9169499874115,66.91792488098145,66.91792488098145,66.9461259841919,88.85664582252502,89.63476181030273,89.63476181030273,89.63476181030273,9,9.872297048568726,M,,,,,,,,,,2,w,21,2023-05-16_13h36.24.824,Gaze_Estimation_Final,2022.2.4,38.60420123903694,
C:\Users\calti\Documents\Masterarbeit\PsychoPy\img_train\M02_04.jpg,img_train/M02_04.jpg,M02,4,,0,1,1,2,,,,,,,,,,,,,99.30813193321228,99.99493885040283,99.99493885040283,99.99493885040283,2,9.443735122680664,M,,,,,,,,,,2,w,21,2023-05-16_13h36.24.824,Gaze_Estimation_Final,2022.2.4,38.60420123903694,
C:\Users\calti\Documents\Masterarbeit\PsychoPy\img_train\M02_04.jpg,img_train/M02_04.jpg,M02,4,,0,2,2,2,,,,,,,,,,,,,109.30706596374512,109.97718691825867,109.97718691825867,109.97718691825867,4,3.0183660984039307,M,,,,,,,,,,2,w,21,2023-05-16_13h36.24.824,Gaze_Estimation_Final,2022.2.4,38.60420123903694,
C:\Users\calti\Documents\Masterarbeit\PsychoPy\img_train\M02_02.jpg,img_train/M02_02.jpg,M02,2,,0,3,3,1,,,,,,,,,,,,,112.87776780128479,113.54767394065857,113.54767394065857,113.54767394065857,2,2.866328001022339,M,,,,,,,,,,2,w,21,2023-05-16_13h36.24.824,Gaze_Estimation_Final,2022.2.4,38.60420123903694,
C:\Users\calti\Documents\Masterarbeit\PsychoPy\img_train\M02_00.jpg,img_train/M02_00.jpg,M02,0,,0,4,4,0,,,,,,,,,,,,,116.2986319065094,116.98106479644775,116.98106479644775,116.98106479644775,2,2.791033983230591,M,,,,,,,,,,2,w,21,2023-05-16_13h36.24.824,Gaze_Estimation_Final,2022.2.4,38.60420123903694,
C:\Users\calti\Documents\Masterarbeit\PsychoPy\img_train\M02_06.jpg,img_train/M02_06.jpg,M02,6,,1,0,5,3,,,,,,,,,,,,,119.64368295669556,120.31467890739441,120.31467890739441,120.31467890739441,2,2.478133201599121,M,,,,,,,,,,2,w,21,2023-05-16_13h36.24.824,Gaze_Estimation_Final,2022.2.4,38.60420123903694,
C:\Users\calti\Documents\Masterarbeit\PsychoPy\img_train\M02_00.jpg,img_train/M02_00.jpg,M02,0,,1,1,6,0,,,,,,,,,,,,,122.6754789352417,123.34355998039246,123.34355998039246,123.34355998039246,1,3.2749969959259033,M,,,,,,,,,,2,w,21,2023-05-16_13h36.24.824,Gaze_Estimation_Final,2022.2.4,38.60420123903694,
C:\Users\calti\Documents\Masterarbeit\PsychoPy\img_train\M02_12.jpg,img_train/M02_12.jpg,M02,12,,1,2,7,4,,,,,,,,,,,,,126.50414395332336,127.1737117767334,127.1737117767334,127.1737117767334,10,3.196269989013672,M,,,,,,,,,,2,w,21,2023-05-16_13h36.24.824,Gaze_Estimation_Final,2022.2.4,38.60420123903694,
C:\Users\calti\Documents\Masterarbeit\PsychoPy\img_train\M02_02.jpg,img_train/M02_02.jpg,M02,2,,1,3,8,1,,,,,,,,,,,,,130.25401186943054,130.92218780517578,130.92218780517578,130.92218780517578,11,6.141726016998291,M,,,,,,,,,,2,w,21,2023-05-16_13h36.24.824,Gaze_Estimation_Final,2022.2.4,38.60420123903694,
C:\Users\calti\Documents\Masterarbeit\PsychoPy\img_train\M02_06.jpg,img_train/M02_06.jpg,M02,6,,1,4,9,3,,,,,,,,,,,,,136.94819498062134,137.61962699890137,137.61962699890137,137.61962699890137,16,101.62800598144531,M,,,,,,,,,,2,w,21,2023-05-16_13h36.24.824,Gaze_Estimation_Final,2022.2.4,38.60420123903694,
C:\Users\calti\Documents\Masterarbeit\PsychoPy\img_exp\F21_04.jpg,img_exp/F21_04.jpg,F21,4,4.4,,,,,0,0,0,116,,,,,,,,,,,,,18,6.612112998962402,F,239.10595679283142,242.10645198822021,242.10645198822021,242.1339738368988,244.913587808609,245.62263298034668,245.62263298034668,245.62263298034668,,2,w,21,2023-05-16_13h36.24.824,Gaze_Estimation_Final,2022.2.4,38.60420123903694,
C:\Users\calti\Documents\Masterarbeit\PsychoPy\img_exp\M02_12.jpg,img_exp/M02_12.jpg,M02,12,13.3,,,,,0,1,1,167,,,,,,,,,,,,,30,8.520165920257568,M,,,,,252.07918286323547,252.77671098709106,252.77671098709106,252.77671098709106,,2,w,21,2023-05-16_13h36.24.824,Gaze_Estimation_Final,2022.2.4,38.60420123903694,
C:\Users\calti\Documents\Masterarbeit\PsychoPy\img_exp\F12_00.jpg,img_exp/F12_00.jpg,F12,0,0,,,,,0,2,2,60,,,,,,,,,,,,,2,1.9922771453857422,F,,,,,261.15325379371643,261.84850096702576,261.84850096702576,261.84850096702576,,2,w,21,2023-05-16_13h36.24.824,Gaze_Estimation_Final,2022.2.4,38.60420123903694,
C:\Users\calti\Documents\Masterarbeit\PsychoPy\img_exp\F12_12.jpg,img_exp/F12_12.jpg,F12,12,13.3,,,,,0,3,3,65,,,,,,,,,,,,,27,3.71287202835083,F,,,,,263.69921493530273,264.4349889755249,264.4349889755249,264.4349889755249,,2,w,21,2023-05-16_13h36.24.824,Gaze_Estimation_Final,2022.2.4,38.60420123903694,
C:\Users\calti\Documents\Masterarbeit\PsychoPy\img_exp\M12_06.jpg,img_exp/M12_06.jpg,M12,6,6.6,,,,,0,4,4,225,,,,,,,,,,,,,30,4.807950973510742,M,,,,,267.9677309989929,268.6515197753906,268.6515197753906,268.6515197753906,,2,w,21,2023-05-16_13h36.24.824,Gaze_Estimation_Final,2022.2.4,38.60420123903694,
C:\Users\calti\Documents\Masterarbeit\PsychoPy\img_exp\F15_04.jpg,img_exp/F15_04.jpg,F15,4,4.4,,,,,0,5,5,80,,,,,,,,,,,,,14,3.375459909439087,F,,,,,273.3293528556824,274.0151917934418,274.0151917934418,274.0151917934418,,2,w,21,2023-05-16_13h36.24.824,Gaze_Estimation_Final,2022.2.4,38.60420123903694,
C:\Users\calti\Documents\Masterarbeit\PsychoPy\img_exp\M01_00.jpg,img_exp/M01_00.jpg,M01,0,0,,,,,0,6,6,156,,,,,,,,,,,,,22,7.6026999950408936,M,,,,,277.2590479850769,277.945827960968,277.945827960968,277.945827960968,,2,w,21,2023-05-16_13h36.24.824,Gaze_Estimation_Final,2022.2.4,38.60420123903694,
C:\Users\calti\Documents\Masterarbeit\PsychoPy\img_exp\M09_00.jpg,img_exp/M09_00.jpg,M09,0,0,,,,,0,7,7,204,,,,,,,,,,,,,24,5.18778395652771,M,,,,,285.4161419868469,286.12149691581726,286.12149691581726,286.12149691581726,,2,w,21,2023-05-16_13h36.24.824,Gaze_Estimation_Final,2022.2.4,38.60420123903694,
C:\Users\calti\Documents\Masterarbeit\PsychoPy\img_exp\M12_08.jpg,img_exp/M12_08.jpg,M12,8,8.8,,,,,0,8,8,226,,,,,,,,,,,,,45,17.083678007125854,M,,,,,291.15975999832153,291.8582978248596,291.8582978248596,291.8582978248596,,2,w,21,2023-05-16_13h36.24.824,Gaze_Estimation_Final,2022.2.4,38.60420123903694,
C:\Users\calti\Documents\Masterarbeit\PsychoPy\img_exp\F25_00.jpg,img_exp/F25_00.jpg,F25,0,0,,,,,0,9,9,138,,,,,,,,,,,,,4,6.039813995361328,F,,,,,308.7973909378052,309.5043799877167,309.5043799877167,309.5043799877167,,2,w,21,2023-05-16_13h36.24.824,Gaze_Estimation_Final,2022.2.4,38.60420123903694,
C:\Users\calti\Documents\Masterarbeit\PsychoPy\img_exp\F25_08.jpg,img_exp/F25_08.jpg,F25,8,8.8,,,,,0,10,10,142,,,,,,,,,,,,,44,13.077367067337036,F,,,,,315.3909239768982,316.11891889572144,316.11891889572144,316.11891889572144,,2,w,21,2023-05-16_13h36.24.824,Gaze_Estimation_Final,2022.2.4,38.60420123903694,
C:\Users\calti\Documents\Masterarbeit\PsychoPy\img_exp\F08_06.jpg,img_exp/F08_06.jpg,F08,6,6.6,,,,,0,11,11,39,,,,,,,,,,,,,32,3.864047050476074,F,,,,,329.0205399990082,329.73788690567017,329.73788690567017,329.73788690567017,,2,w,21,2023-05-16_13h36.24.824,Gaze_Estimation_Final,2022.2.4,38.60420123903694,
C:\Users\calti\Documents\Masterarbeit\PsychoPy\img_exp\M04_12.jpg,img_exp/M04_12.jpg,M04,12,13.3,,,,,0,12,12,179,,,,,,,,,,,,,46,5.887173891067505,M,,,,,333.443794965744,334.1640088558197,334.1640088558197,334.1640088558197,,2,w,21,2023-05-16_13h36.24.824,Gaze_Estimation_Final,2022.2.4,38.60420123903694,
C:\Users\calti\Documents\Masterarbeit\PsychoPy\img_exp\F03_06.jpg,img_exp/F03_06.jpg,F03,6,6.6,,,,,0,13,13,15,,,,,,,,,,,,,14,3.232304811477661,F,,,,,339.88588190078735,340.6031939983368,340.6031939983368,340.6031939983368,,2,w,21,2023-05-16_13h36.24.824,Gaze_Estimation_Final,2022.2.4,38.60420123903694,
C:\Users\calti\Documents\Masterarbeit\PsychoPy\img_exp\M03_02.jpg,img_exp/M03_02.jpg,M03,2,2.2,,,,,0,14,14,169,,,,,,,,,,,,,25,3.9860880374908447,M,,,,,343.6734778881073,344.3823068141937,344.3823068141937,344.3823068141937,,2,w,21,2023-05-16_13h36.24.824,Gaze_Estimation_Final,2022.2.4,38.60420123903694,
C:\Users\calti\Documents\Masterarbeit\PsychoPy\img_exp\M10_06.jpg,img_exp/M10_06.jpg,M10,6,6.6,,,,,0,15,15,213,,,,,,,,,,,,,35,4.748831033706665,M,,,,,348.2136459350586,348.92315697669983,348.92315697669983,348.92315697669983,,2,w,21,2023-05-16_13h36.24.824,Gaze_Estimation_Final,2022.2.4,38.60420123903694,
C:\Users\calti\Documents\Masterarbeit\PsychoPy\img_exp\F01_04.jpg,img_exp/F01_04.jpg,F01,4,4.4,,,,,0,16,16,2,,,,,,,,,,,,,22,3.7616050243377686,F,,,,,353.5189869403839,354.22982478141785,354.22982478141785,354.22982478141785,,2,w,21,2023-05-16_13h36.24.824,Gaze_Estimation_Final,2022.2.4,38.60420123903694,
C:\Users\calti\Documents\Masterarbeit\PsychoPy\img_exp\M08_08.jpg,img_exp/M08_08.jpg,M08,8,8.8,,,,,0,17,17,202,,,,,,,,,,,,,33,4.483129024505615,M,,,,,357.8367338180542,358.5500729084015,358.5500729084015,358.5500729084015,,2,w,21,2023-05-16_13h36.24.824,Gaze_Estimation_Final,2022.2.4,38.60420123903694,
C:\Users\calti\Documents\Masterarbeit\PsychoPy\img_exp\F09_04.jpg,img_exp/F09_04.jpg,F09,4,4.4,,,,,0,18,18,44,,,,,,,,,,,,,2,3.137740135192871,F,,,,,362.8740289211273,363.5902638435364,363.5902638435364,363.5902638435364,,2,w,21,2023-05-16_13h36.24.824,Gaze_Estimation_Final,2022.2.4,38.60420123903694,
C:\Users\calti\Documents\Masterarbeit\PsychoPy\img_exp\F21_04.jpg,img_exp/F21_04.jpg,F21,4,4.4,,,,,0,19,19,116,,,,,,,,,,,,,12,3.8968780040740967,F,,,,,366.5638918876648,367.27546882629395,367.27546882629395,367.27546882629395,,2,w,21,2023-05-16_13h36.24.824,Gaze_Estimation_Final,2022.2.4,38.60420123903694,
C:\Users\calti\Documents\Masterarbeit\PsychoPy\img_exp\M02_12.jpg,img_exp/M02_12.jpg,M02,12,13.3,,,,,0,20,20,167,,,,,,,,,,,,,30,4.129862070083618,M,,,,,371.0158669948578,371.73408794403076,371.73408794403076,371.73408794403076,,2,w,21,2023-05-16_13h36.24.824,Gaze_Estimation_Final,2022.2.4,38.60420123903694,
C:\Users\calti\Documents\Masterarbeit\PsychoPy\img_exp\M01_08.jpg,img_exp/M01_08.jpg,M01,8,8.8,,,,,0,21,21,160,,,,,,,,,,,,,39,3.9908080101013184,M,,,,,375.70114278793335,376.41345500946045,376.41345500946045,376.41345500946045,,2,w,21,2023-05-16_13h36.24.824,Gaze_Estimation_Final,2022.2.4,38.60420123903694,
C:\Users\calti\Documents\Masterarbeit\PsychoPy\img_exp\F05_02.jpg,img_exp/F05_02.jpg,F05,2,2.2,,,,,0,22,22,25,,,,,,,,,,,,,2,2.3451359272003174,F,,,,,380.24656987190247,380.93530893325806,380.93530893325806,380.93530893325806,,2,w,21,2023-05-16_13h36.24.824,Gaze_Estimation_Final,2022.2.4,38.60420123903694,
C:\Users\calti\Documents\Masterarbeit\PsychoPy\img_exp\F09_00.jpg,img_exp/F09_00.jpg,F09,0,0,,,,,0,23,23,42,,,,,,,,,,,,,1,1.607177972793579,F,,,,,383.145632982254,383.8612439632416,383.8612439632416,383.8612439632416,,2,w,21,2023-05-16_13h36.24.824,Gaze_Estimation_Final,2022.2.4,38.60420123903694,
C:\Users\calti\Documents\Masterarbeit\PsychoPy\img_exp\M14_02.jpg,img_exp/M14_02.jpg,M14,2,2.2,,,,,0,24,24,235,,,,,,,,,,,,,5,5.777189016342163,M,,,,,385.31042885780334,386.02210783958435,386.02210783958435,386.02210783958435,,2,w,21,2023-05-16_13h36.24.824,Gaze_Estimation_Final,2022.2.4,38.60420123903694,
C:\Users\calti\Documents\Masterarbeit\PsychoPy\img_exp\M03_08.jpg,img_exp/M03_08.jpg,M03,8,8.8,,,,,0,25,25,172,,,,,,,,,,,,,20,5.914201974868774,M,,,,,391.6431407928467,392.3537178039551,392.3537178039551,392.3537178039551,,2,w,21,2023-05-16_13h36.24.824,Gaze_Estimation_Final,2022.2.4,38.60420123903694,
C:\Users\calti\Documents\Masterarbeit\PsychoPy\img_exp\M14_00.jpg,img_exp/M14_00.jpg,M14,0,0,,,,,0,26,26,234,,,,,,,,,,,,,2,14.00647497177124,M,,,,,398.10978388786316,398.79615092277527,398.79615092277527,398.79615092277527,,2,w,21,2023-05-16_13h36.24.824,Gaze_Estimation_Final,2022.2.4,38.60420123903694,
C:\Users\calti\Documents\Masterarbeit\PsychoPy\img_exp\M10_00.jpg,img_exp/M10_00.jpg,M10,0,0,,,,,0,27,27,210,,,,,,,,,,,,,1,2.949125051498413,M,,,,,412.6699788570404,413.38178181648254,413.38178181648254,413.38178181648254,,2,w,21,2023-05-16_13h36.24.824,Gaze_Estimation_Final,2022.2.4,38.60420123903694,
C:\Users\calti\Documents\Masterarbeit\PsychoPy\img_exp\F05_08.jpg,img_exp/F05_08.jpg,F05,8,8.8,,,,,0,28,28,28,,,,,,,,,,,,,26,3.8691821098327637,F,,,,,416.17402386665344,416.8586449623108,416.8586449623108,416.8586449623108,,2,w,21,2023-05-16_13h36.24.824,Gaze_Estimation_Final,2022.2.4,38.60420123903694,
C:\Users\calti\Documents\Masterarbeit\PsychoPy\img_exp\F16_04.jpg,img_exp/F16_04.jpg,F16,4,4.4,,,,,0,29,29,86,,,,,,,,,,,,,20,3.6984128952026367,F,,,,,420.5975658893585,421.2872428894043,421.2872428894043,421.2872428894043,,2,w,21,2023-05-16_13h36.24.824,Gaze_Estimation_Final,2022.2.4,38.60420123903694,
C:\Users\calti\Documents\Masterarbeit\PsychoPy\img_exp\M04_08.jpg,img_exp/M04_08.jpg,M04,8,8.8,,,,,0,30,30,178,,,,,,,,,,,,,32,4.617094993591309,M,,,,,424.8490879535675,425.5610749721527,425.5610749721527,425.5610749721527,,2,w,21,2023-05-16_13h36.24.824,Gaze_Estimation_Final,2022.2.4,38.60420123903694,
C:\Users\calti\Documents\Masterarbeit\PsychoPy\img_exp\M02_06.jpg,img_exp/M02_06.jpg,M02,6,6.6,,,,,0,31,31,165,,,,,,,,,,,,,30,3.1635608673095703,M,,,,,430.0191388130188,430.7168538570404,430.7168538570404,430.7168538570404,,2,w,21,2023-05-16_13h36.24.824,Gaze_Estimation_Final,2022.2.4,38.60420123903694,
C:\Users\calti\Documents\Masterarbeit\PsychoPy\img_exp\F25_04.jpg,img_exp/F25_04.jpg,F25,4,4.4,,,,,0,32,32,140,,,,,,,,,,,,,2,2.037766933441162,F,,,,,433.7365458011627,434.43513894081116,434.43513894081116,434.43513894081116,,2,w,21,2023-05-16_13h36.24.824,Gaze_Estimation_Final,2022.2.4,38.60420123903694,
C:\Users\calti\Documents\Masterarbeit\PsychoPy\img_exp\M07_12.jpg,img_exp/M07_12.jpg,M07,12,13.3,,,,,0,33,33,197,,,,,,,,,,,,,22,5.522074937820435,M,,,,,436.3298728466034,437.04688596725464,437.04688596725464,437.04688596725464,,2,w,21,2023-05-16_13h36.24.824,Gaze_Estimation_Final,2022.2.4,38.60420123903694,
C:\Users\calti\Documents\Masterarbeit\PsychoPy\img_exp\F10_04.jpg,img_exp/F10_04.jpg,F10,4,4.4,,,,,0,34,34,50,,,,,,,,,,,,,25,3.210768938064575,F,,,,,442.40735387802124,443.10345482826233,443.10345482826233,443.10345482826233,,2,w,21,2023-05-16_13h36.24.824,Gaze_Estimation_Final,2022.2.4,38.60420123903694,
C:\Users\calti\Documents\Masterarbeit\PsychoPy\img_exp\M07_04.jpg,img_exp/M07_04.jpg,M07,4,4.4,,,,,0,35,35,194,,,,,,,,,,,,,2,2.3591341972351074,M,,,,,446.17103099823,446.87469577789307,446.87469577789307,446.87469577789307,,2,w,21,2023-05-16_13h36.24.824,Gaze_Estimation_Final,2022.2.4,38.60420123903694,
C:\Users\calti\Documents\Masterarbeit\PsychoPy\img_exp\M04_02.jpg,img_exp/M04_02.jpg,M04,2,2.2,,,,,0,36,36,175,,,,,,,,,,,,,6,4.562495946884155,M,,,,,449.0829439163208,449.7920289039612,449.7920289039612,449.7920289039612,,2,w,21,2023-05-16_13h36.24.824,Gaze_Estimation_Final,2022.2.4,38.60420123903694,
C:\Users\calti\Documents\Masterarbeit\PsychoPy\img_exp\M04_08.jpg,img_exp/M04_08.jpg,M04,8,8.8,,,,,0,37,37,178,,,,,,,,,,,,,18,3.290415048599243,M,,,,,454.19966197013855,454.8872928619385,454.8872928619385,454.8872928619385,,2,w,21,2023-05-16_13h36.24.824,Gaze_Estimation_Final,2022.2.4,38.60420123903694,
C:\Users\calti\Documents\Masterarbeit\PsychoPy\img_exp\F26_12.jpg,img_exp/F26_12.jpg,F26,12,13.3,,,,,0,38,38,149,,,,,,,,,,,,,26,3.3556690216064453,F,,,,,458.04373598098755,458.7520658969879,458.7520658969879,458.7520658969879,,2,w,21,2023-05-16_13h36.24.824,Gaze_Estimation_Final,2022.2.4,38.60420123903694,
C:\Users\calti\Documents\Masterarbeit\PsychoPy\img_exp\M04_00.jpg,img_exp/M04_00.jpg,M04,0,0,,,,,0,39,39,174,,,,,,,,,,,,,2,3.262171983718872,M,,,,,461.9534809589386,462.6633048057556,462.6633048057556,462.6633048057556,,2,w,21,2023-05-16_13h36.24.824,Gaze_Estimation_Final,2022.2.4,38.60420123903694,
C:\Users\calti\Documents\Masterarbeit\PsychoPy\img_exp\M07_02.jpg,img_exp/M07_02.jpg,M07,2,2.2,,,,,0,40,40,193,,,,,,,,,,,,,5,2.803457021713257,M,,,,,465.77205896377563,466.47098898887634,466.47098898887634,466.47098898887634,,2,w,21,2023-05-16_13h36.24.824,Gaze_Estimation_Final,2022.2.4,38.60420123903694,
C:\Users\calti\Documents\Masterarbeit\PsychoPy\img_exp\M01_02.jpg,img_exp/M01_02.jpg,M01,2,2.2,,,,,0,41,41,157,,,,,,,,,,,,,3,3.192030906677246,M,,,,,469.1306118965149,469.81461000442505,469.81461000442505,469.81461000442505,,2,w,21,2023-05-16_13h36.24.824,Gaze_Estimation_Final,2022.2.4,38.60420123903694,
C:\Users\calti\Documents\Masterarbeit\PsychoPy\img_exp\F07_02.jpg,img_exp/F07_02.jpg,F07,2,2.2,,,,,0,42,42,31,,,,,,,,,,,,,2,2.3578531742095947,F,,,,,472.87766098976135,473.5789098739624,473.5789098739624,473.5789098739624,,2,w,21,2023-05-16_13h36.24.824,Gaze_Estimation_Final,2022.2.4,38.60420123903694,
C:\Users\calti\Documents\Masterarbeit\PsychoPy\img_exp\F19_06.jpg,img_exp/F19_06.jpg,F19,6,6.6,,,,,0,43,43,105,,,,,,,,,,,,,22,2.5061330795288086,F,,,,,475.7885398864746,476.5022749900818,476.5022749900818,476.5022749900818,,2,w,21,2023-05-16_13h36.24.824,Gaze_Estimation_Final,2022.2.4,38.60420123903694,
C:\Users\calti\Documents\Masterarbeit\PsychoPy\img_exp\M06_04.jpg,img_exp/M06_04.jpg,M06,4,4.4,,,,,0,44,44,188,,,,,,,,,,,,,1,2.529512882232666,M,,,,,478.8506989479065,479.5457489490509,479.5457489490509,479.5457489490509,,2,w,21,2023-05-16_13h36.24.824,Gaze_Estimation_Final,2022.2.4,38.60420123903694,
C:\Users\calti\Documents\Masterarbeit\PsychoPy\img_exp\F24_02.jpg,img_exp/F24_02.jpg,F24,2,2.2,,,,,0,45,45,133,,,,,,,,,,,,,15,2.9556519985198975,F,,,,,481.93532490730286,482.64684987068176,482.64684987068176,482.64684987068176,,2,w,21,2023-05-16_13h36.24.824,Gaze_Estimation_Final,2022.2.4,38.60420123903694,
C:\Users\calti\Documents\Masterarbeit\PsychoPy\img_exp\M13_00.jpg,img_exp/M13_00.jpg,M13,0,0,,,,,0,46,46,228,,,,,,,,,,,,,1,2.5041449069976807,M,,,,,485.44549083709717,486.1654529571533,486.1654529571533,486.1654529571533,,2,w,21,2023-05-16_13h36.24.824,Gaze_Estimation_Final,2022.2.4,38.60420123903694,
C:\Users\calti\Documents\Masterarbeit\PsychoPy\img_exp\F22_04.jpg,img_exp/F22_04.jpg,F22,4,4.4,,,,,0,47,47,122,,,,,,,,,,,,,2,4.066188812255859,F,,,,,488.5097439289093,489.2159309387207,489.2159309387207,489.2159309387207,,2,w,21,2023-05-16_13h36.24.824,Gaze_Estimation_Final,2022.2.4,38.60420123903694,
C:\Users\calti\Documents\Masterarbeit\PsychoPy\img_exp\F22_04.jpg,img_exp/F22_04.jpg,F22,4,4.4,,,,,0,48,48,122,,,,,,,,,,,,,2,1.7182929515838623,F,,,,,493.1328217983246,493.82047486305237,493.82047486305237,493.82047486305237,,2,w,21,2023-05-16_13h36.24.824,Gaze_Estimation_Final,2022.2.4,38.60420123903694,
C:\Users\calti\Documents\Masterarbeit\PsychoPy\img_exp\M10_00.jpg,img_exp/M10_00.jpg,M10,0,0,,,,,0,49,49,210,,,,,,,,,,,,,2,1.3575530052185059,M,,,,,495.4057469367981,496.0921378135681,496.0921378135681,496.0921378135681,,2,w,21,2023-05-16_13h36.24.824,Gaze_Estimation_Final,2022.2.4,38.60420123903694,
C:\Users\calti\Documents\Masterarbeit\PsychoPy\img_exp\F18_02.jpg,img_exp/F18_02.jpg,F18,2,2.2,,,,,0,50,50,97,,,,,,,,,,,,,30,3.363924980163574,F,,,,,497.31725788116455,498.03032898902893,498.03032898902893,498.03032898902893,,2,w,21,2023-05-16_13h36.24.824,Gaze_Estimation_Final,2022.2.4,38.60420123903694,
C:\Users\calti\Documents\Masterarbeit\PsychoPy\img_exp\F21_12.jpg,img_exp/F21_12.jpg,F21,12,13.3,,,,,0,51,51,119,,,,,,,,,,,,,33,2.643515110015869,F,,,,,501.2339928150177,501.9469418525696,501.9469418525696,501.9469418525696,,2,w,21,2023-05-16_13h36.24.824,Gaze_Estimation_Final,2022.2.4,38.60420123903694,
C:\Users\calti\Documents\Masterarbeit\PsychoPy\img_exp\F10_06.jpg,img_exp/F10_06.jpg,F10,6,6.6,,,,,0,52,52,51,,,,,,,,,,,,,23,4.921976089477539,F,,,,,504.4319198131561,505.13682198524475,505.13682198524475,505.13682198524475,,2,w,21,2023-05-16_13h36.24.824,Gaze_Estimation_Final,2022.2.4,38.60420123903694,
C:\Users\calti\Documents\Masterarbeit\PsychoPy\img_exp\F21_06.jpg,img_exp/F21_06.jpg,F21,6,6.6,,,,,0,53,53,117,,,,,,,,,,,,,27,3.256455898284912,F,,,,,509.9106788635254,510.6074068546295,510.6074068546295,510.6074068546295,,2,w,21,2023-05-16_13h36.24.824,Gaze_Estimation_Final,2022.2.4,38.60420123903694,
C:\Users\calti\Documents\Masterarbeit\PsychoPy\img_exp\F22_00.jpg,img_exp/F22_00.jpg,F22,0,0,,,,,0,54,54,120,,,,,,,,,,,,,3,4.549062967300415,F,,,,,513.7211380004883,514.413008928299,514.413008928299,514.413008928299,,2,w,21,2023-05-16_13h36.24.824,Gaze_Estimation_Final,2022.2.4,38.60420123903694,
C:\Users\calti\Documents\Masterarbeit\PsychoPy\img_exp\M05_08.jpg,img_exp/M05_08.jpg,M05,8,8.8,,,,,0,55,55,184,,,,,,,,,,,,,22,3.5116851329803467,M,,,,,518.8228619098663,519.5057017803192,519.5057017803192,519.5057017803192,,2,w,21,2023-05-16_13h36.24.824,Gaze_Estimation_Final,2022.2.4,38.60420123903694,
C:\Users\calti\Documents\Masterarbeit\PsychoPy\img_exp\M04_06.jpg,img_exp/M04_06.jpg,M04,6,6.6,,,,,0,56,56,177,,,,,,,,,,,,,15,4.391674995422363,M,,,,,522.8882257938385,523.5999917984009,523.5999917984009,523.5999917984009,,2,w,21,2023-05-16_13h36.24.824,Gaze_Estimation_Final,2022.2.4,38.60420123903694,
C:\Users\calti\Documents\Masterarbeit\PsychoPy\img_exp\F25_00.jpg,img_exp/F25_00.jpg,F25,0,0,,,,,0,57,57,138,,,,,,,,,,,,,2,5.3244469165802,F,,,,,527.8335478305817,528.539705991745,528.539705991745,528.539705991745,,2,w,21,2023-05-16_13h36.24.824,Gaze_Estimation_Final,2022.2.4,38.60420123903694,
C:\Users\calti\Documents\Masterarbeit\PsychoPy\img_exp\F18_00.jpg,img_exp/F18_00.jpg,F18,0,0,,,,,0,58,58,96,,,,,,,,,,,,,3,4.260356903076172,F,,,,,533.7126948833466,534.4247188568115,534.4247188568115,534.4247188568115,,2,w,21,2023-05-16_13h36.24.824,Gaze_Estimation_Final,2022.2.4,38.60420123903694,
C:\Users\calti\Documents\Masterarbeit\PsychoPy\img_exp\F14_12.jpg,img_exp/F14_12.jpg,F14,12,13.3,,,,,0,59,59,77,,,,,,,,,,,,,13,4.250576019287109,F,,,,,538.528119802475,539.230397939682,539.230397939682,539.230397939682,,2,w,21,2023-05-16_13h36.24.824,Gaze_Estimation_Final,2022.2.4,38.60420123903694,
C:\Users\calti\Documents\Masterarbeit\PsychoPy\img_exp\F23_12.jpg,img_exp/F23_12.jpg,F23,12,13.3,,,,,0,60,60,131,,,,,,,,,,,,,32,5.058328866958618,F,,,,,543.334841966629,544.0401167869568,544.0401167869568,544.0401167869568,,2,w,21,2023-05-16_13h36.24.824,Gaze_Estimation_Final,2022.2.4,38.60420123903694,
C:\Users\calti\Documents\Masterarbeit\PsychoPy\img_exp\F19_04.jpg,img_exp/F19_04.jpg,F19,4,4.4,,,,,0,61,61,104,,,,,,,,,,,,,23,4.098535060882568,F,,,,,548.9500780105591,549.637592792511,549.637592792511,549.637592792511,,2,w,21,2023-05-16_13h36.24.824,Gaze_Estimation_Final,2022.2.4,38.60420123903694,
C:\Users\calti\Documents\Masterarbeit\PsychoPy\img_exp\M14_04.jpg,img_exp/M14_04.jpg,M14,4,4.4,,,,,0,62,62,236,,,,,,,,,,,,,20,6.392530202865601,M,,,,,553.6038918495178,554.2863450050354,554.2863450050354,554.2863450050354,,2,w,21,2023-05-16_13h36.24.824,Gaze_Estimation_Final,2022.2.4,38.60420123903694,
C:\Users\calti\Documents\Masterarbeit\PsychoPy\img_exp\F19_06.jpg,img_exp/F19_06.jpg,F19,6,6.6,,,,,0,63,63,105,,,,,,,,,,,,,32,5.491937160491943,F,,,,,560.5496289730072,561.2414019107819,561.2414019107819,561.2414019107819,,2,w,21,2023-05-16_13h36.24.824,Gaze_Estimation_Final,2022.2.4,38.60420123903694,
C:\Users\calti\Documents\Masterarbeit\PsychoPy\img_exp\F26_00.jpg,img_exp/F26_00.jpg,F26,0,0,,,,,0,64,64,144,,,,,,,,,,,,,2,2.3231430053710938,F,,,,,566.5960929393768,567.309681892395,567.309681892395,567.309681892395,,2,w,21,2023-05-16_13h36.24.824,Gaze_Estimation_Final,2022.2.4,38.60420123903694,
C:\Users\calti\Documents\Masterarbeit\PsychoPy\img_exp\F28_12.jpg,img_exp/F28_12.jpg,F28,12,13.3,,,,,0,65,65,155,,,,,,,,,,,,,30,5.411802053451538,F,,,,,569.4758648872375,570.1753549575806,570.1753549575806,570.1753549575806,,2,w,21,2023-05-16_13h36.24.824,Gaze_Estimation_Final,2022.2.4,38.60420123903694,
C:\Users\calti\Documents\Masterarbeit\PsychoPy\img_exp\M11_00.jpg,img_exp/M11_00.jpg,M11,0,0,,,,,0,66,66,216,,,,,,,,,,,,,1,2.004835844039917,M,,,,,575.4492359161377,576.1575829982758,576.1575829982758,576.1575829982758,,2,w,21,2023-05-16_13h36.24.824,Gaze_Estimation_Final,2022.2.4,38.60420123903694,
C:\Users\calti\Documents\Masterarbeit\PsychoPy\img_exp\F01_02.jpg,img_exp/F01_02.jpg,F01,2,2.2,,,,,0,67,67,1,,,,,,,,,,,,,10,2.8074707984924316,F,,,,,578.00981092453,578.7052319049835,578.7052319049835,578.7052319049835,,2,w,21,2023-05-16_13h36.24.824,Gaze_Estimation_Final,2022.2.4,38.60420123903694,
C:\Users\calti\Documents\Masterarbeit\PsychoPy\img_exp\F21_04.jpg,img_exp/F21_04.jpg,F21,4,4.4,,,,,0,68,68,116,,,,,,,,,,,,,23,3.555011034011841,F,,,,,581.370258808136,582.0530250072479,582.0530250072479,582.0530250072479,,2,w,21,2023-05-16_13h36.24.824,Gaze_Estimation_Final,2022.2.4,38.60420123903694,
C:\Users\calti\Documents\Masterarbeit\PsychoPy\img_exp\F05_04.jpg,img_exp/F05_04.jpg,F05,4,4.4,,,,,0,69,69,26,,,,,,,,,,,,,3,4.012032985687256,F,,,,,585.4790318012238,586.1649968624115,586.1649968624115,586.1649968624115,,2,w,21,2023-05-16_13h36.24.824,Gaze_Estimation_Final,2022.2.4,38.60420123903694,
C:\Users\calti\Documents\Masterarbeit\PsychoPy\img_exp\M03_08.jpg,img_exp/M03_08.jpg,M03,8,8.8,,,,,0,70,70,172,,,,,,,,,,,,,28,3.6925899982452393,M,,,,,590.0454468727112,590.7328779697418,590.7328779697418,590.7328779697418,,2,w,21,2023-05-16_13h36.24.824,Gaze_Estimation_Final,2022.2.4,38.60420123903694,
C:\Users\calti\Documents\Masterarbeit\PsychoPy\img_exp\M14_02.jpg,img_exp/M14_02.jpg,M14,2,2.2,,,,,0,71,71,235,,,,,,,,,,,,,32,4.633136034011841,M,,,,,594.2937428951263,594.9765939712524,594.9765939712524,594.9765939712524,,2,w,21,2023-05-16_13h36.24.824,Gaze_Estimation_Final,2022.2.4,38.60420123903694,
C:\Users\calti\Documents\Masterarbeit\PsychoPy\img_exp\F26_04.jpg,img_exp/F26_04.jpg,F26,4,4.4,,,,,0,72,72,146,,,,,,,,,,,,,30,4.572043180465698,F,,,,,599.4807357788086,600.1861188411713,600.1861188411713,600.1861188411713,,2,w,21,2023-05-16_13h36.24.824,Gaze_Estimation_Final,2022.2.4,38.60420123903694,
C:\Users\calti\Documents\Masterarbeit\PsychoPy\img_exp\F28_06.jpg,img_exp/F28_06.jpg,F28,6,6.6,,,,,0,73,73,153,,,,,,,,,,,,,40,3.6273179054260254,F,,,,,604.6066818237305,605.3150939941406,605.3150939941406,605.3150939941406,,2,w,21,2023-05-16_13h36.24.824,Gaze_Estimation_Final,2022.2.4,38.60420123903694,
C:\Users\calti\Documents\Masterarbeit\PsychoPy\img_exp\F22_00.jpg,img_exp/F22_00.jpg,F22,0,0,,,,,0,74,74,120,,,,,,,,,,,,,1,2.116997003555298,F,,,,,608.7886888980865,609.4742867946625,609.4742867946625,609.4742867946625,,2,w,21,2023-05-16_13h36.24.824,Gaze_Estimation_Final,2022.2.4,38.60420123903694,
C:\Users\calti\Documents\Masterarbeit\PsychoPy\img_exp\F22_08.jpg,img_exp/F22_08.jpg,F22,8,8.8,,,,,0,75,75,124,,,,,,,,,,,,,32,3.043680191040039,F,,,,,611.4603328704834,612.1694037914276,612.1694037914276,612.1694037914276,,2,w,21,2023-05-16_13h36.24.824,Gaze_Estimation_Final,2022.2.4,38.60420123903694,
C:\Users\calti\Documents\Masterarbeit\PsychoPy\img_exp\F07_04.jpg,img_exp/F07_04.jpg,F07,4,4.4,,,,,0,76,76,32,,,,,,,,,,,,,2,1.9380309581756592,F,,,,,615.0571548938751,615.7407457828522,615.7407457828522,615.7407457828522,,2,w,21,2023-05-16_13h36.24.824,Gaze_Estimation_Final,2022.2.4,38.60420123903694,
C:\Users\calti\Documents\Masterarbeit\PsychoPy\img_exp\F22_02.jpg,img_exp/F22_02.jpg,F22,2,2.2,,,,,0,77,77,121,,,,,,,,,,,,,2,3.5353548526763916,F,,,,,617.5489799976349,618.2605438232422,618.2605438232422,618.2605438232422,,2,w,21,2023-05-16_13h36.24.824,Gaze_Estimation_Final,2022.2.4,38.60420123903694,
C:\Users\calti\Documents\Masterarbeit\PsychoPy\img_exp\M05_12.jpg,img_exp/M05_12.jpg,M05,12,13.3,,,,,0,78,78,185,,,,,,,,,,,,,29,2.7263340950012207,M,,,,,621.6371078491211,622.3426198959351,622.3426198959351,622.3426198959351,,2,w,21,2023-05-16_13h36.24.824,Gaze_Estimation_Final,2022.2.4,38.60420123903694,
C:\Users\calti\Documents\Masterarbeit\PsychoPy\img_exp\F04_02.jpg,img_exp/F04_02.jpg,F04,2,2.2,,,,,0,79,79,19,,,,,,,,,,,,,2,1.914914846420288,F,,,,,624.9171578884125,625.6236448287964,625.6236448287964,625.6236448287964,,2,w,21,2023-05-16_13h36.24.824,Gaze_Estimation_Final,2022.2.4,38.60420123903694,
C:\Users\calti\Documents\Masterarbeit\PsychoPy\img_exp\F07_00.jpg,img_exp/F07_00.jpg,F07,0,0,,,,,0,80,80,30,,,,,,,,,,,,,2,1.7013962268829346,F,,,,,627.3861567974091,628.1046957969666,628.1046957969666,628.1046957969666,,2,w,21,2023-05-16_13h36.24.824,Gaze_Estimation_Final,2022.2.4,38.60420123903694,
C:\Users\calti\Documents\Masterarbeit\PsychoPy\img_exp\F22_02.jpg,img_exp/F22_02.jpg,F22,2,2.2,,,,,0,81,81,121,,,,,,,,,,,,,2,2.073652982711792,F,,,,,629.6424198150635,630.32821393013,630.32821393013,630.32821393013,,2,w,21,2023-05-16_13h36.24.824,Gaze_Estimation_Final,2022.2.4,38.60420123903694,
C:\Users\calti\Documents\Masterarbeit\PsychoPy\img_exp\F16_02.jpg,img_exp/F16_02.jpg,F16,2,2.2,,,,,0,82,82,85,,,,,,,,,,,,,3,2.5494179725646973,F,,,,,632.2697439193726,632.9833779335022,632.9833779335022,632.9833779335022,,2,w,21,2023-05-16_13h36.24.824,Gaze_Estimation_Final,2022.2.4,38.60420123903694,
C:\Users\calti\Documents\Masterarbeit\PsychoPy\img_exp\F25_04.jpg,img_exp/F25_04.jpg,F25,4,4.4,,,,,0,83,83,140,,,,,,,,,,,,,2,2.216581106185913,F,,,,,635.3736109733582,636.065426826477,636.065426826477,636.065426826477,,2,w,21,2023-05-16_13h36.24.824,Gaze_Estimation_Final,2022.2.4,38.60420123903694,
C:\Users\calti\Documents\Masterarbeit\PsychoPy\img_exp\F12_02.jpg,img_exp/F12_02.jpg,F12,2,2.2,,,,,0,84,84,61,,,,,,,,,,,,,2,1.3402948379516602,F,,,,,638.1427428722382,638.8593587875366,638.8593587875366,638.8593587875366,,2,w,21,2023-05-16_13h36.24.824,Gaze_Estimation_Final,2022.2.4,38.60420123903694,
C:\Users\calti\Documents\Masterarbeit\PsychoPy\img_exp\F24_06.jpg,img_exp/F24_06.jpg,F24,6,6.6,,,,,0,85,85,135,,,,,,,,,,,,,24,3.402754068374634,F,,,,,640.0387148857117,640.7490289211273,640.7490289211273,640.7490289211273,,2,w,21,2023-05-16_13h36.24.824,Gaze_Estimation_Final,2022.2.4,38.60420123903694,
C:\Users\calti\Documents\Masterarbeit\PsychoPy\img_exp\F23_04.jpg,img_exp/F23_04.jpg,F23,4,4.4,,,,,0,86,86,128,,,,,,,,,,,,,2,1.95393705368042,F,,,,,643.9969439506531,644.6980609893799,644.6980609893799,644.6980609893799,,2,w,21,2023-05-16_13h36.24.824,Gaze_Estimation_Final,2022.2.4,38.60420123903694,
C:\Users\calti\Documents\Masterarbeit\PsychoPy\img_exp\F05_02.jpg,img_exp/F05_02.jpg,F05,2,2.2,,,,,0,87,87,25,,,,,,,,,,,,,2,2.072125196456909,F,,,,,646.5048818588257,647.1876289844513,647.1876289844513,647.1876289844513,,2,w,21,2023-05-16_13h36.24.824,Gaze_Estimation_Final,2022.2.4,38.60420123903694,
C:\Users\calti\Documents\Masterarbeit\PsychoPy\img_exp\F22_12.jpg,img_exp/F22_12.jpg,F22,12,13.3,,,,,0,88,88,125,,,,,,,,,,,,,33,2.858242988586426,F,,,,,649.1302828788757,649.8346319198608,649.8346319198608,649.8346319198608,,2,w,21,2023-05-16_13h36.24.824,Gaze_Estimation_Final,2022.2.4,38.60420123903694,
C:\Users\calti\Documents\Masterarbeit\PsychoPy\img_exp\F09_12.jpg,img_exp/F09_12.jpg,F09,12,13.3,,,,,0,89,89,47,,,,,,,,,,,,,58,6.765838146209717,F,,,,,652.5435929298401,653.250394821167,653.250394821167,653.250394821167,,2,w,21,2023-05-16_13h36.24.824,Gaze_Estimation_Final,2022.2.4,38.60420123903694,
C:\Users\calti\Documents\Masterarbeit\PsychoPy\img_exp\F20_06.jpg,img_exp/F20_06.jpg,F20,6,6.6,,,,,0,90,90,111,,,,,,,,,,,,,68,7.666682004928589,F,,,,,659.8631858825684,660.5736680030823,660.5736680030823,660.5736680030823,,2,w,21,2023-05-16_13h36.24.824,Gaze_Estimation_Final,2022.2.4,38.60420123903694,
C:\Users\calti\Documents\Masterarbeit\PsychoPy\img_exp\F11_00.jpg,img_exp/F11_00.jpg,F11,0,0,,,,,0,91,91,54,,,,,,,,,,,,,4,5.869059085845947,F,,,,,668.0854449272156,668.7994379997253,668.7994379997253,668.7994379997253,,2,w,21,2023-05-16_13h36.24.824,Gaze_Estimation_Final,2022.2.4,38.60420123903694,
C:\Users\calti\Documents\Masterarbeit\PsychoPy\img_exp\M03_06.jpg,img_exp/M03_06.jpg,M03,6,6.6,,,,,0,92,92,171,,,,,,,,,,,,,33,2.932935953140259,M,,,,,674.5128409862518,675.2038159370422,675.2038159370422,675.2038159370422,,2,w,21,2023-05-16_13h36.24.824,Gaze_Estimation_Final,2022.2.4,38.60420123903694,
C:\Users\calti\Documents\Masterarbeit\PsychoPy\img_exp\F11_12.jpg,img_exp/F11_12.jpg,F11,12,13.3,,,,,0,93,93,59,,,,,,,,,,,,,69,5.2877161502838135,F,,,,,678.0029098987579,678.7134988307953,678.7134988307953,678.7134988307953,,2,w,21,2023-05-16_13h36.24.824,Gaze_Estimation_Final,2022.2.4,38.60420123903694,
C:\Users\calti\Documents\Masterarbeit\PsychoPy\img_exp\F18_08.jpg,img_exp/F18_08.jpg,F18,8,8.8,,,,,0,94,94,100,,,,,,,,,,,,,57,4.414088010787964,F,,,,,683.8445677757263,684.5346388816833,684.5346388816833,684.5346388816833,,2,w,21,2023-05-16_13h36.24.824,Gaze_Estimation_Final,2022.2.4,38.60420123903694,
C:\Users\calti\Documents\Masterarbeit\PsychoPy\img_exp\F02_00.jpg,img_exp/F02_00.jpg,F02,0,0,,,,,0,95,95,6,,,,,,,,,,,,,3,1.9168980121612549,F,,,,,688.8136839866638,689.5230429172516,689.5230429172516,689.5230429172516,,2,w,21,2023-05-16_13h36.24.824,Gaze_Estimation_Final,2022.2.4,38.60420123903694,
C:\Users\calti\Documents\Masterarbeit\PsychoPy\img_exp\F22_06.jpg,img_exp/F22_06.jpg,F22,6,6.6,,,,,0,96,96,123,,,,,,,,,,,,,34,4.298460960388184,F,,,,,691.2847998142242,691.9936079978943,691.9936079978943,691.9936079978943,,2,w,21,2023-05-16_13h36.24.824,Gaze_Estimation_Final,2022.2.4,38.60420123903694,
C:\Users\calti\Documents\Masterarbeit\PsychoPy\img_exp\F14_00.jpg,img_exp/F14_00.jpg,F14,0,0,,,,,0,97,97,72,,,,,,,,,,,,,2,2.0918121337890625,F,,,,,696.1369309425354,696.8424589633942,696.8424589633942,696.8424589633942,,2,w,21,2023-05-16_13h36.24.824,Gaze_Estimation_Final,2022.2.4,38.60420123903694,
C:\Users\calti\Documents\Masterarbeit\PsychoPy\img_exp\M09_02.jpg,img_exp/M09_02.jpg,M09,2,2.2,,,,,0,98,98,205,,,,,,,,,,,,,4,2.6669981479644775,M,,,,,698.7854888439178,699.4800429344177,699.4800429344177,699.4800429344177,,2,w,21,2023-05-16_13h36.24.824,Gaze_Estimation_Final,2022.2.4,38.60420123903694,
C:\Users\calti\Documents\Masterarbeit\PsychoPy\img_exp\F10_12.jpg,img_exp/F10_12.jpg,F10,12,13.3,,,,,0,99,99,53,,,,,,,,,,,,,30,2.813723087310791,F,,,,,702.0065360069275,702.7100028991699,702.7100028991699,702.7100028991699,,2,w,21,2023-05-16_13h36.24.824,Gaze_Estimation_Final,2022.2.4,38.60420123903694,
C:\Users\calti\Documents\Masterarbeit\PsychoPy\img_exp\F15_12.jpg,img_exp/F15_12.jpg,F15,12,13.3,,,,,0,100,100,83,,,,,,,,,,,,,40,2.8222339153289795,F,,,,,705.3726658821106,706.0845968723297,706.0845968723297,706.0845968723297,,2,w,21,2023-05-16_13h36.24.824,Gaze_Estimation_Final,2022.2.4,38.60420123903694,
C:\Users\calti\Documents\Masterarbeit\PsychoPy\img_exp\F13_00.jpg,img_exp/F13_00.jpg,F13,0,0,,,,,0,101,101,66,,,,,,,,,,,,,2,2.7296221256256104,F,,,,,708.7506859302521,709.4651877880096,709.4651877880096,709.4651877880096,,2,w,21,2023-05-16_13h36.24.824,Gaze_Estimation_Final,2022.2.4,38.60420123903694,
C:\Users\calti\Documents\Masterarbeit\PsychoPy\img_exp\F08_12.jpg,img_exp/F08_12.jpg,F08,12,13.3,,,,,0,102,102,41,,,,,,,,,,,,,45,4.604262113571167,F,,,,,712.0356588363647,712.7353138923645,712.7353138923645,712.7353138923645,,2,w,21,2023-05-16_13h36.24.824,Gaze_Estimation_Final,2022.2.4,38.60420123903694,
C:\Users\calti\Documents\Masterarbeit\PsychoPy\img_exp\M01_04.jpg,img_exp/M01_04.jpg,M01,4,4.4,,,,,0,103,103,158,,,,,,,,,,,,,34,3.5242550373077393,M,,,,,717.1946427822113,717.8877699375153,717.8877699375153,717.8877699375153,,2,w,21,2023-05-16_13h36.24.824,Gaze_Estimation_Final,2022.2.4,38.60420123903694,
C:\Users\calti\Documents\Masterarbeit\PsychoPy\img_exp\F13_02.jpg,img_exp/F13_02.jpg,F13,2,2.2,,,,,0,104,104,67,,,,,,,,,,,,,2,3.311148166656494,F,,,,,721.2713859081268,721.9872798919678,721.9872798919678,721.9872798919678,,2,w,21,2023-05-16_13h36.24.824,Gaze_Estimation_Final,2022.2.4,38.60420123903694,
C:\Users\calti\Documents\Masterarbeit\PsychoPy\img_exp\F22_12.jpg,img_exp/F22_12.jpg,F22,12,13.3,,,,,0,105,105,125,,,,,,,,,,,,,30,4.9034528732299805,F,,,,,725.1375207901001,725.8232858181,725.8232858181,725.8232858181,,2,w,21,2023-05-16_13h36.24.824,Gaze_Estimation_Final,2022.2.4,38.60420123903694,
C:\Users\calti\Documents\Masterarbeit\PsychoPy\img_exp\F10_02.jpg,img_exp/F10_02.jpg,F10,2,2.2,,,,,0,106,106,49,,,,,,,,,,,,,32,3.579339027404785,F,,,,,730.5946998596191,731.3030769824982,731.3030769824982,731.3030769824982,,2,w,21,2023-05-16_13h36.24.824,Gaze_Estimation_Final,2022.2.4,38.60420123903694,
C:\Users\calti\Documents\Masterarbeit\PsychoPy\img_exp\M08_08.jpg,img_exp/M08_08.jpg,M08,8,8.8,,,,,0,107,107,202,,,,,,,,,,,,,38,4.724192142486572,M,,,,,734.7266488075256,735.4102540016174,735.4102540016174,735.4102540016174,,2,w,21,2023-05-16_13h36.24.824,Gaze_Estimation_Final,2022.2.4,38.60420123903694,
C:\Users\calti\Documents\Masterarbeit\PsychoPy\img_exp\F22_12.jpg,img_exp/F22_12.jpg,F22,12,13.3,,,,,0,108,108,125,,,,,,,,,,,,,45,2.575037956237793,F,,,,,740.0045948028564,740.6958038806915,740.6958038806915,740.6958038806915,,2,w,21,2023-05-16_13h36.24.824,Gaze_Estimation_Final,2022.2.4,38.60420123903694,
C:\Users\calti\Documents\Masterarbeit\PsychoPy\img_exp\F10_02.jpg,img_exp/F10_02.jpg,F10,2,2.2,,,,,0,109,109,49,,,,,,,,,,,,,2,2.9716899394989014,F,,,,,743.1361877918243,743.8202559947968,743.8202559947968,743.8202559947968,,2,w,21,2023-05-16_13h36.24.824,Gaze_Estimation_Final,2022.2.4,38.60420123903694,
C:\Users\calti\Documents\Masterarbeit\PsychoPy\img_exp\M12_00.jpg,img_exp/M12_00.jpg,M12,0,0,,,,,0,110,110,222,,,,,,,,,,,,,1,1.8718459606170654,M,,,,,746.6627349853516,747.3727397918701,747.3727397918701,747.3727397918701,,2,w,21,2023-05-16_13h36.24.824,Gaze_Estimation_Final,2022.2.4,38.60420123903694,
C:\Users\calti\Documents\Masterarbeit\PsychoPy\img_exp\F09_12.jpg,img_exp/F09_12.jpg,F09,12,13.3,,,,,0,111,111,47,,,,,,,,,,,,,46,2.7057559490203857,F,,,,,749.0910558700562,749.7774279117584,749.7774279117584,749.7774279117584,,2,w,21,2023-05-16_13h36.24.824,Gaze_Estimation_Final,2022.2.4,38.60420123903694,
C:\Users\calti\Documents\Masterarbeit\PsychoPy\img_exp\F10_08.jpg,img_exp/F10_08.jpg,F10,8,8.8,,,,,0,112,112,52,,,,,,,,,,,,,36,2.8989109992980957,F,,,,,752.3521509170532,753.0528128147125,753.0528128147125,753.0528128147125,,2,w,21,2023-05-16_13h36.24.824,Gaze_Estimation_Final,2022.2.4,38.60420123903694,
C:\Users\calti\Documents\Masterarbeit\PsychoPy\img_exp\F08_08.jpg,img_exp/F08_08.jpg,F08,8,8.8,,,,,0,113,113,40,,,,,,,,,,,,,36,7.227118968963623,F,,,,,755.8056077957153,756.5245769023895,756.5245769023895,756.5245769023895,,2,w,21,2023-05-16_13h36.24.824,Gaze_Estimation_Final,2022.2.4,38.60420123903694,
C:\Users\calti\Documents\Masterarbeit\PsychoPy\img_exp\M08_00.jpg,img_exp/M08_00.jpg,M08,0,0,,,,,0,114,114,198,,,,,,,,,,,,,3,2.1896519660949707,M,,,,,763.5856959819794,764.2978630065918,764.2978630065918,764.2978630065918,,2,w,21,2023-05-16_13h36.24.824,Gaze_Estimation_Final,2022.2.4,38.60420123903694,
C:\Users\calti\Documents\Masterarbeit\PsychoPy\img_exp\F20_04.jpg,img_exp/F20_04.jpg,F20,4,4.4,,,,,0,115,115,110,,,,,,,,,,,,,52,6.719604015350342,F,,,,,766.3301990032196,767.0296878814697,767.0296878814697,767.0296878814697,,2,w,21,2023-05-16_13h36.24.824,Gaze_Estimation_Final,2022.2.4,38.60420123903694,
C:\Users\calti\Documents\Masterarbeit\PsychoPy\img_exp\M02_12.jpg,img_exp/M02_12.jpg,M02,12,13.3,,,,,0,116,116,167,,,,,,,,,,,,,55,4.2304840087890625,M,,,,,773.6027309894562,774.2842838764191,774.2842838764191,774.2842838764191,,2,w,21,2023-05-16_13h36.24.824,Gaze_Estimation_Final,2022.2.4,38.60420123903694,
C:\Users\calti\Documents\Masterarbeit\PsychoPy\img_exp\F24_02.jpg,img_exp/F24_02.jpg,F24,2,2.2,,,,,0,117,117,133,,,,,,,,,,,,,3,1.9411380290985107,F,,,,,778.3871037960052,779.0742859840393,779.0742859840393,779.0742859840393,,2,w,21,2023-05-16_13h36.24.824,Gaze_Estimation_Final,2022.2.4,38.60420123903694,
C:\Users\calti\Documents\Masterarbeit\PsychoPy\img_exp\F12_02.jpg,img_exp/F12_02.jpg,F12,2,2.2,,,,,0,118,118,61,,,,,,,,,,,,,1,1.8948938846588135,F,,,,,780.8837809562683,781.5706307888031,781.5706307888031,781.5706307888031,,2,w,21,2023-05-16_13h36.24.824,Gaze_Estimation_Final,2022.2.4,38.60420123903694,
C:\Users\calti\Documents\Masterarbeit\PsychoPy\img_exp\F11_12.jpg,img_exp/F11_12.jpg,F11,12,13.3,,,,,0,119,119,59,,,,,,,,,,,,,79,7.460475921630859,F,,,,,783.3347318172455,784.0215399265289,784.0215399265289,784.0215399265289,,2,w,21,2023-05-16_13h36.24.824,Gaze_Estimation_Final,2022.2.4,38.60420123903694,
C:\Users\calti\Documents\Masterarbeit\PsychoPy\img_exp\M11_12.jpg,img_exp/M11_12.jpg,M11,12,13.3,,,,,0,120,120,221,,,,,,,,,,,,,76,5.06181788444519,M,,,,,791.3507738113403,792.0595347881317,792.0595347881317,792.0595347881317,,2,w,21,2023-05-16_13h36.24.824,Gaze_Estimation_Final,2022.2.4,38.60420123903694,
C:\Users\calti\Documents\Masterarbeit\PsychoPy\img_exp\F01_08.jpg,img_exp/F01_08.jpg,F01,8,8.8,,,,,0,121,121,4,,,,,,,,,,,,,75,9.99702000617981,F,,,,,796.9680619239807,797.6776719093323,797.6776719093323,797.6776719093323,,2,w,21,2023-05-16_13h36.24.824,Gaze_Estimation_Final,2022.2.4,38.60420123903694,
C:\Users\calti\Documents\Masterarbeit\PsychoPy\img_exp\M08_08.jpg,img_exp/M08_08.jpg,M08,8,8.8,,,,,0,122,122,202,,,,,,,,,,,,,43,8.856014013290405,M,,,,,807.5198137760162,808.2034819126129,808.2034819126129,808.2034819126129,,2,w,21,2023-05-16_13h36.24.824,Gaze_Estimation_Final,2022.2.4,38.60420123903694,
C:\Users\calti\Documents\Masterarbeit\PsychoPy\img_exp\M06_02.jpg,img_exp/M06_02.jpg,M06,2,2.2,,,,,0,123,123,187,,,,,,,,,,,,,1,2.5082948207855225,M,,,,,816.9284579753876,817.6450719833374,817.6450719833374,817.6450719833374,,2,w,21,2023-05-16_13h36.24.824,Gaze_Estimation_Final,2022.2.4,38.60420123903694,
C:\Users\calti\Documents\Masterarbeit\PsychoPy\img_exp\M01_08.jpg,img_exp/M01_08.jpg,M01,8,8.8,,,,,0,124,124,160,,,,,,,,,,,,,33,3.1977620124816895,M,,,,,819.9902157783508,820.6736738681793,820.6736738681793,820.6736738681793,,2,w,21,2023-05-16_13h36.24.824,Gaze_Estimation_Final,2022.2.4,38.60420123903694,
C:\Users\calti\Documents\Masterarbeit\PsychoPy\img_exp\F16_12.jpg,img_exp/F16_12.jpg,F16,12,13.3,,,,,0,125,125,89,,,,,,,,,,,,,54,2.9124460220336914,F,,,,,823.7412919998169,824.4550149440765,824.4550149440765,824.4550149440765,,2,w,21,2023-05-16_13h36.24.824,Gaze_Estimation_Final,2022.2.4,38.60420123903694,
C:\Users\calti\Documents\Masterarbeit\PsychoPy\img_exp\F09_04.jpg,img_exp/F09_04.jpg,F09,4,4.4,,,,,0,126,126,44,,,,,,,,,,,,,3,1.8914871215820312,F,,,,,827.2090919017792,827.8934879302979,827.8934879302979,827.8934879302979,,2,w,21,2023-05-16_13h36.24.824,Gaze_Estimation_Final,2022.2.4,38.60420123903694,
C:\Users\calti\Documents\Masterarbeit\PsychoPy\img_exp\F01_00.jpg,img_exp/F01_00.jpg,F01,0,0,,,,,0,127,127,0,,,,,,,,,,,,,2,5.285727024078369,F,,,,,829.6549918651581,830.3665239810944,830.3665239810944,830.3665239810944,,2,w,21,2023-05-16_13h36.24.824,Gaze_Estimation_Final,2022.2.4,38.60420123903694,
C:\Users\calti\Documents\Masterarbeit\PsychoPy\img_exp\M01_02.jpg,img_exp/M01_02.jpg,M01,2,2.2,,,,,0,128,128,157,,,,,,,,,,,,,3,2.9887211322784424,M,,,,,835.4944608211517,836.1999459266663,836.1999459266663,836.1999459266663,,2,w,21,2023-05-16_13h36.24.824,Gaze_Estimation_Final,2022.2.4,38.60420123903694,
C:\Users\calti\Documents\Masterarbeit\PsychoPy\img_exp\F09_02.jpg,img_exp/F09_02.jpg,F09,2,2.2,,,,,0,129,129,43,,,,,,,,,,,,,2,1.5784950256347656,F,,,,,839.037575006485,839.7216658592224,839.7216658592224,839.7216658592224,,2,w,21,2023-05-16_13h36.24.824,Gaze_Estimation_Final,2022.2.4,38.60420123903694,
C:\Users\calti\Documents\Masterarbeit\PsychoPy\img_exp\F26_04.jpg,img_exp/F26_04.jpg,F26,4,4.4,,,,,0,130,130,146,,,,,,,,,,,,,22,2.6553120613098145,F,,,,,841.1682198047638,841.8512768745422,841.8512768745422,841.8512768745422,,2,w,21,2023-05-16_13h36.24.824,Gaze_Estimation_Final,2022.2.4,38.60420123903694,
C:\Users\calti\Documents\Masterarbeit\PsychoPy\img_exp\M09_00.jpg,img_exp/M09_00.jpg,M09,0,0,,,,,0,131,131,204,,,,,,,,,,,,,3,2.7431719303131104,M,,,,,844.3779067993164,845.0606479644775,845.0606479644775,845.0606479644775,,2,w,21,2023-05-16_13h36.24.824,Gaze_Estimation_Final,2022.2.4,38.60420123903694,
C:\Users\calti\Documents\Masterarbeit\PsychoPy\img_exp\M10_00.jpg,img_exp/M10_00.jpg,M10,0,0,,,,,0,132,132,210,,,,,,,,,,,,,2,3.0992507934570312,M,,,,,847.6736688613892,848.3562920093536,848.3562920093536,848.3562920093536,,2,w,21,2023-05-16_13h36.24.824,Gaze_Estimation_Final,2022.2.4,38.60420123903694,
C:\Users\calti\Documents\Masterarbeit\PsychoPy\img_exp\F19_08.jpg,img_exp/F19_08.jpg,F19,8,8.8,,,,,0,133,133,106,,,,,,,,,,,,,34,6.679182052612305,F,,,,,851.3271799087524,852.0406949520111,852.0406949520111,852.0406949520111,,2,w,21,2023-05-16_13h36.24.824,Gaze_Estimation_Final,2022.2.4,38.60420123903694,
C:\Users\calti\Documents\Masterarbeit\PsychoPy\img_exp\F11_12.jpg,img_exp/F11_12.jpg,F11,12,13.3,,,,,0,134,134,59,,,,,,,,,,,,,60,3.2439181804656982,F,,,,,858.5608248710632,859.2459847927094,859.2459847927094,859.2459847927094,,2,w,21,2023-05-16_13h36.24.824,Gaze_Estimation_Final,2022.2.4,38.60420123903694,
C:\Users\calti\Documents\Masterarbeit\PsychoPy\img_exp\M03_06.jpg,img_exp/M03_06.jpg,M03,6,6.6,,,,,0,135,135,171,,,,,,,,,,,,,54,3.780457019805908,M,,,,,862.3601689338684,863.0451138019562,863.0451138019562,863.0451138019562,,2,w,21,2023-05-16_13h36.24.824,Gaze_Estimation_Final,2022.2.4,38.60420123903694,
C:\Users\calti\Documents\Masterarbeit\PsychoPy\img_exp\F07_02.jpg,img_exp/F07_02.jpg,F07,2,2.2,,,,,0,136,136,31,,,,,,,,,,,,,2,1.622102975845337,F,,,,,866.6953330039978,867.3794639110565,867.3794639110565,867.3794639110565,,2,w,21,2023-05-16_13h36.24.824,Gaze_Estimation_Final,2022.2.4,38.60420123903694,
C:\Users\calti\Documents\Masterarbeit\PsychoPy\img_exp\F01_12.jpg,img_exp/F01_12.jpg,F01,12,13.3,,,,,0,137,137,5,,,,,,,,,,,,,46,3.6211318969726562,F,,,,,868.8707618713379,869.5763659477234,869.5763659477234,869.5763659477234,,2,w,21,2023-05-16_13h36.24.824,Gaze_Estimation_Final,2022.2.4,38.60420123903694,
C:\Users\calti\Documents\Masterarbeit\PsychoPy\img_exp\F08_08.jpg,img_exp/F08_08.jpg,F08,8,8.8,,,,,0,138,138,40,,,,,,,,,,,,,54,3.463027000427246,F,,,,,873.0443978309631,873.7301650047302,873.7301650047302,873.7301650047302,,2,w,21,2023-05-16_13h36.24.824,Gaze_Estimation_Final,2022.2.4,38.60420123903694,
C:\Users\calti\Documents\Masterarbeit\PsychoPy\img_exp\F20_08.jpg,img_exp/F20_08.jpg,F20,8,8.8,,,,,0,139,139,112,,,,,,,,,,,,,54,4.248885869979858,F,,,,,877.0628318786621,877.7703487873077,877.7703487873077,877.7703487873077,,2,w,21,2023-05-16_13h36.24.824,Gaze_Estimation_Final,2022.2.4,38.60420123903694,
C:\Users\calti\Documents\Masterarbeit\PsychoPy\img_exp\M01_06.jpg,img_exp/M01_06.jpg,M01,6,6.6,,,,,0,140,140,159,,,,,,,,,,,,,49,5.188977956771851,M,,,,,881.8655359745026,882.571033000946,882.571033000946,882.571033000946,,2,w,21,2023-05-16_13h36.24.824,Gaze_Estimation_Final,2022.2.4,38.60420123903694,
C:\Users\calti\Documents\Masterarbeit\PsychoPy\img_exp\M05_06.jpg,img_exp/M05_06.jpg,M05,6,6.6,,,,,0,141,141,183,,,,,,,,,,,,,10,3.1943588256835938,M,,,,,887.6076738834381,888.2903578281403,888.2903578281403,888.2903578281403,,2,w,21,2023-05-16_13h36.24.824,Gaze_Estimation_Final,2022.2.4,38.60420123903694,
C:\Users\calti\Documents\Masterarbeit\PsychoPy\img_exp\F12_08.jpg,img_exp/F12_08.jpg,F12,8,8.8,,,,,0,142,142,64,,,,,,,,,,,,,21,4.0774900913238525,F,,,,,891.3544528484344,892.0691249370575,892.0691249370575,892.0691249370575,,2,w,21,2023-05-16_13h36.24.824,Gaze_Estimation_Final,2022.2.4,38.60420123903694,
C:\Users\calti\Documents\Masterarbeit\PsychoPy\img_exp\M04_08.jpg,img_exp/M04_08.jpg,M04,8,8.8,,,,,0,143,143,178,,,,,,,,,,,,,24,2.5738229751586914,M,,,,,895.983913898468,896.6689438819885,896.6689438819885,896.6689438819885,,2,w,21,2023-05-16_13h36.24.824,Gaze_Estimation_Final,2022.2.4,38.60420123903694,
C:\Users\calti\Documents\Masterarbeit\PsychoPy\img_exp\F05_00.jpg,img_exp/F05_00.jpg,F05,0,0,,,,,0,144,144,24,,,,,,,,,,,,,2,2.029554843902588,F,,,,,899.1119439601898,899.7969899177551,899.7969899177551,899.7969899177551,,2,w,21,2023-05-16_13h36.24.824,Gaze_Estimation_Final,2022.2.4,38.60420123903694,
C:\Users\calti\Documents\Masterarbeit\PsychoPy\img_exp\M13_00.jpg,img_exp/M13_00.jpg,M13,0,0,,,,,0,145,145,228,,,,,,,,,,,,,2,2.202939033508301,M,,,,,901.6970548629761,902.3795068264008,902.3795068264008,902.3795068264008,,2,w,21,2023-05-16_13h36.24.824,Gaze_Estimation_Final,2022.2.4,38.60420123903694,
C:\Users\calti\Documents\Masterarbeit\PsychoPy\img_exp\F25_04.jpg,img_exp/F25_04.jpg,F25,4,4.4,,,,,0,146,146,140,,,,,,,,,,,,,18,2.298659086227417,F,,,,,904.452143907547,905.1376249790192,905.1376249790192,905.1376249790192,,2,w,21,2023-05-16_13h36.24.824,Gaze_Estimation_Final,2022.2.4,38.60420123903694,
C:\Users\calti\Documents\Masterarbeit\PsychoPy\img_exp\F21_08.jpg,img_exp/F21_08.jpg,F21,8,8.8,,,,,0,147,147,118,,,,,,,,,,,,,37,3.195815086364746,F,,,,,907.3052458763123,907.9892678260803,907.9892678260803,907.9892678260803,,2,w,21,2023-05-16_13h36.24.824,Gaze_Estimation_Final,2022.2.4,38.60420123903694,
C:\Users\calti\Documents\Masterarbeit\PsychoPy\img_exp\F10_12.jpg,img_exp/F10_12.jpg,F10,12,13.3,,,,,0,148,148,53,,,,,,,,,,,,,48,2.9277780055999756,F,,,,,911.0537259578705,911.7387437820435,911.7387437820435,911.7387437820435,,2,w,21,2023-05-16_13h36.24.824,Gaze_Estimation_Final,2022.2.4,38.60420123903694,
C:\Users\calti\Documents\Masterarbeit\PsychoPy\img_exp\F03_08.jpg,img_exp/F03_08.jpg,F03,8,8.8,,,,,0,149,149,16,,,,,,,,,,,,,27,2.643141031265259,F,,,,,914.5378749370575,915.2482788562775,915.2482788562775,915.2482788562775,,2,w,21,2023-05-16_13h36.24.824,Gaze_Estimation_Final,2022.2.4,38.60420123903694,
C:\Users\calti\Documents\Masterarbeit\PsychoPy\img_exp\F16_00.jpg,img_exp/F16_00.jpg,F16,0,0,,,,,0,150,150,84,,,,,,,,,,,,,3,2.056046962738037,F,,,,,917.7349238395691,918.4480948448181,918.4480948448181,918.4480948448181,,2,w,21,2023-05-16_13h36.24.824,Gaze_Estimation_Final,2022.2.4,38.60420123903694,
C:\Users\calti\Documents\Masterarbeit\PsychoPy\img_exp\M14_12.jpg,img_exp/M14_12.jpg,M14,12,13.3,,,,,0,151,151,239,,,,,,,,,,,,,52,4.214849948883057,M,,,,,920.345116853714,921.0607538223267,921.0607538223267,921.0607538223267,,2,w,21,2023-05-16_13h36.24.824,Gaze_Estimation_Final,2022.2.4,38.60420123903694,
C:\Users\calti\Documents\Masterarbeit\PsychoPy\img_exp\F19_04.jpg,img_exp/F19_04.jpg,F19,4,4.4,,,,,0,152,152,104,,,,,,,,,,,,,42,3.0222671031951904,F,,,,,925.1144738197327,925.8018238544464,925.8018238544464,925.8018238544464,,2,w,21,2023-05-16_13h36.24.824,Gaze_Estimation_Final,2022.2.4,38.60420123903694,
C:\Users\calti\Documents\Masterarbeit\PsychoPy\img_exp\F05_00.jpg,img_exp/F05_00.jpg,F05,0,0,,,,,0,153,153,24,,,,,,,,,,,,,2,1.8923568725585938,F,,,,,928.6911299228668,929.3751440048218,929.3751440048218,929.3751440048218,,2,w,21,2023-05-16_13h36.24.824,Gaze_Estimation_Final,2022.2.4,38.60420123903694,
C:\Users\calti\Documents\Masterarbeit\PsychoPy\img_exp\F11_04.jpg,img_exp/F11_04.jpg,F11,4,4.4,,,,,0,154,154,56,,,,,,,,,,,,,40,2.8625149726867676,F,,,,,931.1369450092316,931.8443429470062,931.8443429470062,931.8443429470062,,2,w,21,2023-05-16_13h36.24.824,Gaze_Estimation_Final,2022.2.4,38.60420123903694,
C:\Users\calti\Documents\Masterarbeit\PsychoPy\img_exp\M07_12.jpg,img_exp/M07_12.jpg,M07,12,13.3,,,,,0,155,155,197,,,,,,,,,,,,,43,2.793194055557251,M,,,,,934.5537209510803,935.2403697967529,935.2403697967529,935.2403697967529,,2,w,21,2023-05-16_13h36.24.824,Gaze_Estimation_Final,2022.2.4,38.60420123903694,
C:\Users\calti\Documents\Masterarbeit\PsychoPy\img_exp\M03_12.jpg,img_exp/M03_12.jpg,M03,12,13.3,,,,,0,156,156,173,,,,,,,,,,,,,55,3.537269115447998,M,,,,,937.9007618427277,938.6078588962555,938.6078588962555,938.6078588962555,,2,w,21,2023-05-16_13h36.24.824,Gaze_Estimation_Final,2022.2.4,38.60420123903694,
C:\Users\calti\Documents\Masterarbeit\PsychoPy\img_exp\F18_04.jpg,img_exp/F18_04.jpg,F18,4,4.4,,,,,0,157,157,98,,,,,,,,,,,,,2,1.5596940517425537,F,,,,,941.991849899292,942.701828956604,942.701828956604,942.701828956604,,2,w,21,2023-05-16_13h36.24.824,Gaze_Estimation_Final,2022.2.4,38.60420123903694,
C:\Users\calti\Documents\Masterarbeit\PsychoPy\img_exp\M11_08.jpg,img_exp/M11_08.jpg,M11,8,8.8,,,,,0,158,158,220,,,,,,,,,,,,,28,2.549062967300415,M,,,,,944.1045958995819,944.8142278194427,944.8142278194427,944.8142278194427,,2,w,21,2023-05-16_13h36.24.824,Gaze_Estimation_Final,2022.2.4,38.60420123903694,
C:\Users\calti\Documents\Masterarbeit\PsychoPy\img_exp\F03_08.jpg,img_exp/F03_08.jpg,F03,8,8.8,,,,,0,159,159,16,,,,,,,,,,,,,33,2.888986825942993,F,,,,,947.2071418762207,947.8954029083252,947.8954029083252,947.8954029083252,,2,w,21,2023-05-16_13h36.24.824,Gaze_Estimation_Final,2022.2.4,38.60420123903694,
C:\Users\calti\Documents\Masterarbeit\PsychoPy\img_exp\F07_00.jpg,img_exp/F07_00.jpg,F07,0,0,,,,,0,160,160,30,,,,,,,,,,,,,3,1.8474950790405273,F,,,,,950.6501557826996,951.334725856781,951.334725856781,951.334725856781,,2,w,21,2023-05-16_13h36.24.824,Gaze_Estimation_Final,2022.2.4,38.60420123903694,
C:\Users\calti\Documents\Masterarbeit\PsychoPy\img_exp\M07_06.jpg,img_exp/M07_06.jpg,M07,6,6.6,,,,,0,161,161,195,,,,,,,,,,,,,2,2.0509021282196045,M,,,,,953.0524899959564,953.7594919204712,953.7594919204712,953.7594919204712,,2,w,21,2023-05-16_13h36.24.824,Gaze_Estimation_Final,2022.2.4,38.60420123903694,
C:\Users\calti\Documents\Masterarbeit\PsychoPy\img_exp\F28_04.jpg,img_exp/F28_04.jpg,F28,4,4.4,,,,,0,162,162,152,,,,,,,,,,,,,3,2.678853988647461,F,,,,,955.6571879386902,956.3659658432007,956.3659658432007,956.3659658432007,,2,w,21,2023-05-16_13h36.24.824,Gaze_Estimation_Final,2022.2.4,38.60420123903694,
C:\Users\calti\Documents\Masterarbeit\PsychoPy\img_exp\M07_02.jpg,img_exp/M07_02.jpg,M07,2,2.2,,,,,0,163,163,193,,,,,,,,,,,,,2,2.028236150741577,M,,,,,958.8913660049438,959.5764629840851,959.5764629840851,959.5764629840851,,2,w,21,2023-05-16_13h36.24.824,Gaze_Estimation_Final,2022.2.4,38.60420123903694,
C:\Users\calti\Documents\Masterarbeit\PsychoPy\img_exp\F12_00.jpg,img_exp/F12_00.jpg,F12,0,0,,,,,0,164,164,60,,,,,,,,,,,,,2,2.195862054824829,F,,,,,961.4731738567352,962.1891329288483,962.1891329288483,962.1891329288483,,2,w,21,2023-05-16_13h36.24.824,Gaze_Estimation_Final,2022.2.4,38.60420123903694,
C:\Users\calti\Documents\Masterarbeit\PsychoPy\img_exp\F23_02.jpg,img_exp/F23_02.jpg,F23,2,2.2,,,,,0,165,165,127,,,,,,,,,,,,,2,2.150959014892578,F,,,,,964.2228708267212,964.9422039985657,964.9422039985657,964.9422039985657,,2,w,21,2023-05-16_13h36.24.824,Gaze_Estimation_Final,2022.2.4,38.60420123903694,
C:\Users\calti\Documents\Masterarbeit\PsychoPy\img_exp\M10_08.jpg,img_exp/M10_08.jpg,M10,8,8.8,,,,,0,166,166,214,,,,,,,,,,,,,22,2.149444103240967,M,,,,,966.9288549423218,967.6377418041229,967.6377418041229,967.6377418041229,,2,w,21,2023-05-16_13h36.24.824,Gaze_Estimation_Final,2022.2.4,38.60420123903694,
C:\Users\calti\Documents\Masterarbeit\PsychoPy\img_exp\F25_12.jpg,img_exp/F25_12.jpg,F25,12,13.3,,,,,0,167,167,143,,,,,,,,,,,,,33,2.7210400104522705,F,,,,,969.6321399211884,970.3322169780731,970.3322169780731,970.3322169780731,,2,w,21,2023-05-16_13h36.24.824,Gaze_Estimation_Final,2022.2.4,38.60420123903694,
C:\Users\calti\Documents\Masterarbeit\PsychoPy\img_exp\F23_00.jpg,img_exp/F23_00.jpg,F23,0,0,,,,,0,168,168,126,,,,,,,,,,,,,2,2.3510098457336426,F,,,,,972.9075009822845,973.6027278900146,973.6027278900146,973.6027278900146,,2,w,21,2023-05-16_13h36.24.824,Gaze_Estimation_Final,2022.2.4,38.60420123903694,
C:\Users\calti\Documents\Masterarbeit\PsychoPy\img_exp\F07_08.jpg,img_exp/F07_08.jpg,F07,8,8.8,,,,,0,169,169,34,,,,,,,,,,,,,38,2.607063055038452,F,,,,,975.8148679733276,976.5354809761047,976.5354809761047,976.5354809761047,,2,w,21,2023-05-16_13h36.24.824,Gaze_Estimation_Final,2022.2.4,38.60420123903694,
C:\Users\calti\Documents\Masterarbeit\PsychoPy\img_exp\F02_06.jpg,img_exp/F02_06.jpg,F02,6,6.6,,,,,0,170,170,9,,,,,,,,,,,,,42,2.594468832015991,F,,,,,978.9753649234772,979.6847548484802,979.6847548484802,979.6847548484802,,2,w,21,2023-05-16_13h36.24.824,Gaze_Estimation_Final,2022.2.4,38.60420123903694,
C:\Users\calti\Documents\Masterarbeit\PsychoPy\img_exp\F15_06.jpg,img_exp/F15_06.jpg,F15,6,6.6,,,,,0,171,171,81,,,,,,,,,,,,,31,2.767773151397705,F,,,,,982.1238689422607,982.8286049365997,982.8286049365997,982.8286049365997,,2,w,21,2023-05-16_13h36.24.824,Gaze_Estimation_Final,2022.2.4,38.60420123903694,
C:\Users\calti\Documents\Masterarbeit\PsychoPy\img_exp\F15_12.jpg,img_exp/F15_12.jpg,F15,12,13.3,,,,,0,172,172,83,,,,,,,,,,,,,64,3.5095860958099365,F,,,,,985.4456958770752,986.1305499076843,986.1305499076843,986.1305499076843,,2,w,21,2023-05-16_13h36.24.824,Gaze_Estimation_Final,2022.2.4,38.60420123903694,
C:\Users\calti\Documents\Masterarbeit\PsychoPy\img_exp\M10_02.jpg,img_exp/M10_02.jpg,M10,2,2.2,,,,,0,173,173,211,,,,,,,,,,,,,2,2.101905107498169,M,,,,,989.5108108520508,990.2229099273682,990.2229099273682,990.2229099273682,,2,w,21,2023-05-16_13h36.24.824,Gaze_Estimation_Final,2022.2.4,38.60420123903694,
C:\Users\calti\Documents\Masterarbeit\PsychoPy\img_exp\F04_00.jpg,img_exp/F04_00.jpg,F04,0,0,,,,,0,174,174,18,,,,,,,,,,,,,1,2.2299020290374756,F,,,,,992.168251991272,992.8759829998016,992.8759829998016,992.8759829998016,,2,w,21,2023-05-16_13h36.24.824,Gaze_Estimation_Final,2022.2.4,38.60420123903694,
C:\Users\calti\Documents\Masterarbeit\PsychoPy\img_exp\M14_00.jpg,img_exp/M14_00.jpg,M14,0,0,,,,,0,175,175,234,,,,,,,,,,,,,22,2.3908870220184326,M,,,,,994.9545278549194,995.6385579109192,995.6385579109192,995.6385579109192,,2,w,21,2023-05-16_13h36.24.824,Gaze_Estimation_Final,2022.2.4,38.60420123903694,
C:\Users\calti\Documents\Masterarbeit\PsychoPy\img_exp\M10_12.jpg,img_exp/M10_12.jpg,M10,12,13.3,,,,,0,176,176,215,,,,,,,,,,,,,41,2.5867230892181396,M,,,,,997.9005768299103,998.6036229133606,998.6036229133606,998.6036229133606,,2,w,21,2023-05-16_13h36.24.824,Gaze_Estimation_Final,2022.2.4,38.60420123903694,
C:\Users\calti\Documents\Masterarbeit\PsychoPy\img_exp\F14_04.jpg,img_exp/F14_04.jpg,F14,4,4.4,,,,,0,177,177,74,,,,,,,,,,,,,14,15.980185985565186,F,,,,,1001.0396389961243,1001.7480728626251,1001.7480728626251,1001.7480728626251,,2,w,21,2023-05-16_13h36.24.824,Gaze_Estimation_Final,2022.2.4,38.60420123903694,
C:\Users\calti\Documents\Masterarbeit\PsychoPy\img_exp\M04_12.jpg,img_exp/M04_12.jpg,M04,12,13.3,,,,,0,178,178,179,,,,,,,,,,,,,38,7.334342956542969,M,,,,,1017.5729758739471,1018.2676529884338,1018.2676529884338,1018.2676529884338,,2,w,21,2023-05-16_13h36.24.824,Gaze_Estimation_Final,2022.2.4,38.60420123903694,
C:\Users\calti\Documents\Masterarbeit\PsychoPy\img_exp\F05_08.jpg,img_exp/F05_08.jpg,F05,8,8.8,,,,,0,179,179,28,,,,,,,,,,,,,33,2.7039620876312256,F,,,,,1025.4612789154053,1026.1427738666534,1026.1427738666534,1026.1427738666534,,2,w,21,2023-05-16_13h36.24.824,Gaze_Estimation_Final,2022.2.4,38.60420123903694,
C:\Users\calti\Documents\Masterarbeit\PsychoPy\img_exp\F26_12.jpg,img_exp/F26_12.jpg,F26,12,13.3,,,,,0,180,180,149,,,,,,,,,,,,,40,2.7949891090393066,F,,,,,1028.7188119888306,1029.4026749134064,1029.4026749134064,1029.4026749134064,,2,w,21,2023-05-16_13h36.24.824,Gaze_Estimation_Final,2022.2.4,38.60420123903694,
C:\Users\calti\Documents\Masterarbeit\PsychoPy\img_exp\M06_00.jpg,img_exp/M06_00.jpg,M06,0,0,,,,,0,181,181,186,,,,,,,,,,,,,2,1.8643250465393066,M,,,,,1032.0674049854279,1032.767916917801,1032.767916917801,1032.767916917801,,2,w,21,2023-05-16_13h36.24.824,Gaze_Estimation_Final,2022.2.4,38.60420123903694,
C:\Users\calti\Documents\Masterarbeit\PsychoPy\img_exp\M09_08.jpg,img_exp/M09_08.jpg,M09,8,8.8,,,,,0,182,182,208,,,,,,,,,,,,,29,3.3980588912963867,M,,,,,1034.484591960907,1035.1876578330994,1035.1876578330994,1035.1876578330994,,2,w,21,2023-05-16_13h36.24.824,Gaze_Estimation_Final,2022.2.4,38.60420123903694,
C:\Users\calti\Documents\Masterarbeit\PsychoPy\img_exp\M08_04.jpg,img_exp/M08_04.jpg,M08,4,4.4,,,,,0,183,183,200,,,,,,,,,,,,,37,2.5944712162017822,M,,,,,1038.4365589618683,1039.139301776886,1039.139301776886,1039.139301776886,,2,w,21,2023-05-16_13h36.24.824,Gaze_Estimation_Final,2022.2.4,38.60420123903694,
C:\Users\calti\Documents\Masterarbeit\PsychoPy\img_exp\F24_04.jpg,img_exp/F24_04.jpg,F24,4,4.4,,,,,0,184,184,134,,,,,,,,,,,,,33,2.557102918624878,F,,,,,1041.5837597846985,1042.2997779846191,1042.2997779846191,1042.2997779846191,,2,w,21,2023-05-16_13h36.24.824,Gaze_Estimation_Final,2022.2.4,38.60420123903694,
C:\Users\calti\Documents\Masterarbeit\PsychoPy\img_exp\F09_00.jpg,img_exp/F09_00.jpg,F09,0,0,,,,,0,185,185,42,,,,,,,,,,,,,2,2.969960927963257,F,,,,,1044.6948869228363,1045.3801147937775,1045.3801147937775,1045.3801147937775,,2,w,21,2023-05-16_13h36.24.824,Gaze_Estimation_Final,2022.2.4,38.60420123903694,
C:\Users\calti\Documents\Masterarbeit\PsychoPy\img_exp\F19_08.jpg,img_exp/F19_08.jpg,F19,8,8.8,,,,,0,186,186,106,,,,,,,,,,,,,30,4.2773919105529785,F,,,,,1048.2202877998352,1048.9064857959747,1048.9064857959747,1048.9064857959747,,2,w,21,2023-05-16_13h36.24.824,Gaze_Estimation_Final,2022.2.4,38.60420123903694,
C:\Users\calti\Documents\Masterarbeit\PsychoPy\img_exp\M08_06.jpg,img_exp/M08_06.jpg,M08,6,6.6,,,,,0,187,187,201,,,,,,,,,,,,,33,4.5205559730529785,M,,,,,1053.0500319004059,1053.7532107830048,1053.7532107830048,1053.7532107830048,,2,w,21,2023-05-16_13h36.24.824,Gaze_Estimation_Final,2022.2.4,38.60420123903694,
C:\Users\calti\Documents\Masterarbeit\PsychoPy\img_exp\M06_12.jpg,img_exp/M06_12.jpg,M06,12,13.3,,,,,0,188,188,191,,,,,,,,,,,,,27,3.2289299964904785,M,,,,,1058.1251158714294,1058.841297864914,1058.841297864914,1058.841297864914,,2,w,21,2023-05-16_13h36.24.824,Gaze_Estimation_Final,2022.2.4,38.60420123903694,
C:\Users\calti\Documents\Masterarbeit\PsychoPy\img_exp\F03_02.jpg,img_exp/F03_02.jpg,F03,2,2.2,,,,,0,189,189,13,,,,,,,,,,,,,2,1.8660929203033447,F,,,,,1061.9102449417114,1062.6128368377686,1062.6128368377686,1062.6128368377686,,2,w,21,2023-05-16_13h36.24.824,Gaze_Estimation_Final,2022.2.4,38.60420123903694,
C:\Users\calti\Documents\Masterarbeit\PsychoPy\img_exp\F22_02.jpg,img_exp/F22_02.jpg,F22,2,2.2,,,,,0,190,190,121,,,,,,,,,,,,,2,1.6289939880371094,F,,,,,1064.3301889896393,1065.0160119533539,1065.0160119533539,1065.0160119533539,,2,w,21,2023-05-16_13h36.24.824,Gaze_Estimation_Final,2022.2.4,38.60420123903694,
C:\Users\calti\Documents\Masterarbeit\PsychoPy\img_exp\F10_08.jpg,img_exp/F10_08.jpg,F10,8,8.8,,,,,0,191,191,52,,,,,,,,,,,,,34,3.418912887573242,F,,,,,1066.5131750106812,1067.1953020095825,1067.1953020095825,1067.1953020095825,,2,w,21,2023-05-16_13h36.24.824,Gaze_Estimation_Final,2022.2.4,38.60420123903694,
C:\Users\calti\Documents\Masterarbeit\PsychoPy\img_exp\M03_04.jpg,img_exp/M03_04.jpg,M03,4,4.4,,,,,0,192,192,170,,,,,,,,,,,,,2,2.4030189514160156,M,,,,,1070.4860990047455,1071.1888628005981,1071.1888628005981,1071.1888628005981,,2,w,21,2023-05-16_13h36.24.824,Gaze_Estimation_Final,2022.2.4,38.60420123903694,
C:\Users\calti\Documents\Masterarbeit\PsychoPy\img_exp\M13_04.jpg,img_exp/M13_04.jpg,M13,4,4.4,,,,,0,193,193,230,,,,,,,,,,,,,6,2.586014986038208,M,,,,,1073.4434847831726,1074.1490149497986,1074.1490149497986,1074.1490149497986,,2,w,21,2023-05-16_13h36.24.824,Gaze_Estimation_Final,2022.2.4,38.60420123903694,
C:\Users\calti\Documents\Masterarbeit\PsychoPy\img_exp\F01_00.jpg,img_exp/F01_00.jpg,F01,0,0,,,,,0,194,194,0,,,,,,,,,,,,,13,3.422982931137085,F,,,,,1076.5832228660583,1077.2689697742462,1077.2689697742462,1077.2689697742462,,2,w,21,2023-05-16_13h36.24.824,Gaze_Estimation_Final,2022.2.4,38.60420123903694,
C:\Users\calti\Documents\Masterarbeit\PsychoPy\img_exp\F19_12.jpg,img_exp/F19_12.jpg,F19,12,13.3,,,,,0,195,195,107,,,,,,,,,,,,,30,2.5044591426849365,F,,,,,1080.5595378875732,1081.2678849697113,1081.2678849697113,1081.2678849697113,,2,w,21,2023-05-16_13h36.24.824,Gaze_Estimation_Final,2022.2.4,38.60420123903694,
C:\Users\calti\Documents\Masterarbeit\PsychoPy\img_exp\F13_00.jpg,img_exp/F13_00.jpg,F13,0,0,,,,,0,196,196,66,,,,,,,,,,,,,2,1.7144250869750977,F,,,,,1083.6176388263702,1084.304063796997,1084.304063796997,1084.304063796997,,2,w,21,2023-05-16_13h36.24.824,Gaze_Estimation_Final,2022.2.4,38.60420123903694,
C:\Users\calti\Documents\Masterarbeit\PsychoPy\img_exp\M04_04.jpg,img_exp/M04_04.jpg,M04,4,4.4,,,,,0,197,197,176,,,,,,,,,,,,,5,3.2245399951934814,M,,,,,1085.8855879306793,1086.5993738174438,1086.5993738174438,1086.5993738174438,,2,w,21,2023-05-16_13h36.24.824,Gaze_Estimation_Final,2022.2.4,38.60420123903694,
C:\Users\calti\Documents\Masterarbeit\PsychoPy\img_exp\M01_02.jpg,img_exp/M01_02.jpg,M01,2,2.2,,,,,0,198,198,157,,,,,,,,,,,,,8,2.6994922161102295,M,,,,,1089.6621108055115,1090.3448808193207,1090.3448808193207,1090.3448808193207,,2,w,21,2023-05-16_13h36.24.824,Gaze_Estimation_Final,2022.2.4,38.60420123903694,
C:\Users\calti\Documents\Masterarbeit\PsychoPy\img_exp\F08_04.jpg,img_exp/F08_04.jpg,F08,4,4.4,,,,,0,199,199,38,,,,,,,,,,,,,10,2.8158891201019287,F,,,,,1092.9158380031586,1093.622169971466,1093.622169971466,1093.622169971466,,2,w,21,2023-05-16_13h36.24.824,Gaze_Estimation_Final,2022.2.4,38.60420123903694,
C:\Users\calti\Documents\Masterarbeit\PsychoPy\img_exp\F14_06.jpg,img_exp/F14_06.jpg,F14,6,6.6,,,,,0,200,200,75,,,,,,,,,,,,,12,2.440850019454956,F,,,,,1096.2848989963531,1096.974848985672,1096.974848985672,1096.974848985672,,2,w,21,2023-05-16_13h36.24.824,Gaze_Estimation_Final,2022.2.4,38.60420123903694,
C:\Users\calti\Documents\Masterarbeit\PsychoPy\img_exp\M11_00.jpg,img_exp/M11_00.jpg,M11,0,0,,,,,0,201,201,216,,,,,,,,,,,,,14,1.8945012092590332,M,,,,,1099.2794737815857,1099.9617049694061,1099.9617049694061,1099.9617049694061,,2,w,21,2023-05-16_13h36.24.824,Gaze_Estimation_Final,2022.2.4,38.60420123903694,
C:\Users\calti\Documents\Masterarbeit\PsychoPy\img_exp\F05_02.jpg,img_exp/F05_02.jpg,F05,2,2.2,,,,,0,202,202,25,,,,,,,,,,,,,16,9.827197074890137,F,,,,,1101.7271268367767,1102.435642004013,1102.435642004013,1102.435642004013,,2,w,21,2023-05-16_13h36.24.824,Gaze_Estimation_Final,2022.2.4,38.60420123903694,
C:\Users\calti\Documents\Masterarbeit\PsychoPy\img_exp\M01_08.jpg,img_exp/M01_08.jpg,M01,8,8.8,,,,,0,203,203,160,,,,,,,,,,,,,21,3.468234062194824,M,,,,,1112.1111929416656,1112.7977409362793,1112.7977409362793,1112.7977409362793,,2,w,21,2023-05-16_13h36.24.824,Gaze_Estimation_Final,2022.2.4,38.60420123903694,
C:\Users\calti\Documents\Masterarbeit\PsychoPy\img_exp\F21_08.jpg,img_exp/F21_08.jpg,F21,8,8.8,,,,,0,204,204,118,,,,,,,,,,,,,26,3.0925610065460205,F,,,,,1116.1342298984528,1116.848464012146,1116.848464012146,1116.848464012146,,2,w,21,2023-05-16_13h36.24.824,Gaze_Estimation_Final,2022.2.4,38.60420123903694,
C:\Users\calti\Documents\Masterarbeit\PsychoPy\img_exp\F04_08.jpg,img_exp/F04_08.jpg,F04,8,8.8,,,,,0,205,205,22,,,,,,,,,,,,,8,2.5037729740142822,F,,,,,1119.780809879303,1120.4945678710938,1120.4945678710938,1120.4945678710938,,2,w,21,2023-05-16_13h36.24.824,Gaze_Estimation_Final,2022.2.4,38.60420123903694,
C:\Users\calti\Documents\Masterarbeit\PsychoPy\img_exp\F21_08.jpg,img_exp/F21_08.jpg,F21,8,8.8,,,,,0,206,206,118,,,,,,,,,,,,,20,2.791861057281494,F,,,,,1122.8384778499603,1123.5201199054718,1123.5201199054718,1123.5201199054718,,2,w,21,2023-05-16_13h36.24.824,Gaze_Estimation_Final,2022.2.4,38.60420123903694,
C:\Users\calti\Documents\Masterarbeit\PsychoPy\img_exp\M06_04.jpg,img_exp/M06_04.jpg,M06,4,4.4,,,,,0,207,207,188,,,,,,,,,,,,,2,1.8456411361694336,M,,,,,1126.184054851532,1126.8672049045563,1126.8672049045563,1126.8672049045563,,2,w,21,2023-05-16_13h36.24.824,Gaze_Estimation_Final,2022.2.4,38.60420123903694,
C:\Users\calti\Documents\Masterarbeit\PsychoPy\img_exp\M02_00.jpg,img_exp/M02_00.jpg,M02,0,0,,,,,0,208,208,162,,,,,,,,,,,,,6,2.275700092315674,M,,,,,1128.5831339359283,1129.2901020050049,1129.2901020050049,1129.2901020050049,,2,w,21,2023-05-16_13h36.24.824,Gaze_Estimation_Final,2022.2.4,38.60420123903694,
C:\Users\calti\Documents\Masterarbeit\PsychoPy\img_exp\F28_12.jpg,img_exp/F28_12.jpg,F28,12,13.3,,,,,0,209,209,155,,,,,,,,,,,,,30,2.745952844619751,F,,,,,1131.413605928421,1132.098802804947,1132.098802804947,1132.098802804947,,2,w,21,2023-05-16_13h36.24.824,Gaze_Estimation_Final,2022.2.4,38.60420123903694,
C:\Users\calti\Documents\Masterarbeit\PsychoPy\img_exp\F14_00.jpg,img_exp/F14_00.jpg,F14,0,0,,,,,0,210,210,72,,,,,,,,,,,,,14,2.7435550689697266,F,,,,,1134.713408946991,1135.3953878879547,1135.3953878879547,1135.3953878879547,,2,w,21,2023-05-16_13h36.24.824,Gaze_Estimation_Final,2022.2.4,38.60420123903694,
C:\Users\calti\Documents\Masterarbeit\PsychoPy\img_exp\M09_02.jpg,img_exp/M09_02.jpg,M09,2,2.2,,,,,0,211,211,205,,,,,,,,,,,,,5,2.659662961959839,M,,,,,1138.0108978748322,1138.6987278461456,1138.6987278461456,1138.6987278461456,,2,w,21,2023-05-16_13h36.24.824,Gaze_Estimation_Final,2022.2.4,38.60420123903694,
C:\Users\calti\Documents\Masterarbeit\PsychoPy\img_exp\F21_00.jpg,img_exp/F21_00.jpg,F21,0,0,,,,,0,212,212,114,,,,,,,,,,,,,5,2.590850830078125,F,,,,,1141.2260909080505,1141.937745809555,1141.937745809555,1141.937745809555,,2,w,21,2023-05-16_13h36.24.824,Gaze_Estimation_Final,2022.2.4,38.60420123903694,
C:\Users\calti\Documents\Masterarbeit\PsychoPy\img_exp\F05_04.jpg,img_exp/F05_04.jpg,F05,4,4.4,,,,,0,213,213,26,,,,,,,,,,,,,2,1.912268877029419,F,,,,,1144.3739459514618,1145.0804088115692,1145.0804088115692,1145.0804088115692,,2,w,21,2023-05-16_13h36.24.824,Gaze_Estimation_Final,2022.2.4,38.60420123903694,
C:\Users\calti\Documents\Masterarbeit\PsychoPy\img_exp\F23_12.jpg,img_exp/F23_12.jpg,F23,12,13.3,,,,,0,214,214,131,,,,,,,,,,,,,38,3.199460029602051,F,,,,,1146.841775894165,1147.5275599956512,1147.5275599956512,1147.5275599956512,,2,w,21,2023-05-16_13h36.24.824,Gaze_Estimation_Final,2022.2.4,38.60420123903694,
C:\Users\calti\Documents\Masterarbeit\PsychoPy\img_exp\F16_06.jpg,img_exp/F16_06.jpg,F16,6,6.6,,,,,0,215,215,87,,,,,,,,,,,,,4,2.2329649925231934,F,,,,,1150.5957279205322,1151.3093078136444,1151.3093078136444,1151.3093078136444,,2,w,21,2023-05-16_13h36.24.824,Gaze_Estimation_Final,2022.2.4,38.60420123903694,
C:\Users\calti\Documents\Masterarbeit\PsychoPy\img_exp\M12_04.jpg,img_exp/M12_04.jpg,M12,4,4.4,,,,,0,216,216,224,,,,,,,,,,,,,1,2.0543720722198486,M,,,,,1153.3851828575134,1154.0971539020538,1154.0971539020538,1154.0971539020538,,2,w,21,2023-05-16_13h36.24.824,Gaze_Estimation_Final,2022.2.4,38.60420123903694,
C:\Users\calti\Documents\Masterarbeit\PsychoPy\img_exp\F16_04.jpg,img_exp/F16_04.jpg,F16,4,4.4,,,,,0,217,217,86,,,,,,,,,,,,,2,1.4957120418548584,F,,,,,1155.9938697814941,1156.6817569732666,1156.6817569732666,1156.6817569732666,,2,w,21,2023-05-16_13h36.24.824,Gaze_Estimation_Final,2022.2.4,38.60420123903694,
C:\Users\calti\Documents\Masterarbeit\PsychoPy\img_exp\F24_08.jpg,img_exp/F24_08.jpg,F24,8,8.8,,,,,0,218,218,136,,,,,,,,,,,,,16,2.3722128868103027,F,,,,,1158.0450809001923,1158.7492518424988,1158.7492518424988,1158.7492518424988,,2,w,21,2023-05-16_13h36.24.824,Gaze_Estimation_Final,2022.2.4,38.60420123903694,
C:\Users\calti\Documents\Masterarbeit\PsychoPy\img_exp\F04_08.jpg,img_exp/F04_08.jpg,F04,8,8.8,,,,,0,219,219,22,,,,,,,,,,,,,2,1.5342328548431396,F,,,,,1160.9716198444366,1161.6551988124847,1161.6551988124847,1161.6551988124847,,2,w,21,2023-05-16_13h36.24.824,Gaze_Estimation_Final,2022.2.4,38.60420123903694,
C:\Users\calti\Documents\Masterarbeit\PsychoPy\img_exp\F17_00.jpg,img_exp/F17_00.jpg,F17,0,0,,,,,0,220,220,90,,,,,,,,,,,,,2,1.338183879852295,F,,,,,1163.0583078861237,1163.7713708877563,1163.7713708877563,1163.7713708877563,,2,w,21,2023-05-16_13h36.24.824,Gaze_Estimation_Final,2022.2.4,38.60420123903694,
C:\Users\calti\Documents\Masterarbeit\PsychoPy\img_exp\M09_02.jpg,img_exp/M09_02.jpg,M09,2,2.2,,,,,0,221,221,205,,,,,,,,,,,,,3,1.9805428981781006,M,,,,,1164.9498620033264,1165.6343159675598,1165.6343159675598,1165.6343159675598,,2,w,21,2023-05-16_13h36.24.824,Gaze_Estimation_Final,2022.2.4,38.60420123903694,
C:\Users\calti\Documents\Masterarbeit\PsychoPy\img_exp\M09_00.jpg,img_exp/M09_00.jpg,M09,0,0,,,,,0,222,222,204,,,,,,,,,,,,,3,1.5769519805908203,M,,,,,1167.4842538833618,1168.1678400039673,1168.1678400039673,1168.1678400039673,,2,w,21,2023-05-16_13h36.24.824,Gaze_Estimation_Final,2022.2.4,38.60420123903694,
C:\Users\calti\Documents\Masterarbeit\PsychoPy\img_exp\M02_04.jpg,img_exp/M02_04.jpg,M02,4,4.4,,,,,0,223,223,164,,,,,,,,,,,,,3,1.5518138408660889,M,,,,,1169.615425825119,1170.3183789253235,1170.3183789253235,1170.3183789253235,,2,w,21,2023-05-16_13h36.24.824,Gaze_Estimation_Final,2022.2.4,38.60420123903694,
C:\Users\calti\Documents\Masterarbeit\PsychoPy\img_exp\M02_04.jpg,img_exp/M02_04.jpg,M02,4,4.4,,,,,0,224,224,164,,,,,,,,,,,,,3,1.7561109066009521,M,,,,,1171.7206218242645,1172.4032399654388,1172.4032399654388,1172.4032399654388,,2,w,21,2023-05-16_13h36.24.824,Gaze_Estimation_Final,2022.2.4,38.60420123903694,
C:\Users\calti\Documents\Masterarbeit\PsychoPy\img_exp\M05_06.jpg,img_exp/M05_06.jpg,M05,6,6.6,,,,,0,225,225,183,,,,,,,,,,,,,5,2.195236921310425,M,,,,,1174.0307948589325,1174.7489249706268,1174.7489249706268,1174.7489249706268,,2,w,21,2023-05-16_13h36.24.824,Gaze_Estimation_Final,2022.2.4,38.60420123903694,
C:\Users\calti\Documents\Masterarbeit\PsychoPy\img_exp\F19_12.jpg,img_exp/F19_12.jpg,F19,12,13.3,,,,,0,226,226,107,,,,,,,,,,,,,8,2.0307061672210693,F,,,,,1176.7808628082275,1177.4677629470825,1177.4677629470825,1177.4677629470825,,2,w,21,2023-05-16_13h36.24.824,Gaze_Estimation_Final,2022.2.4,38.60420123903694,
C:\Users\calti\Documents\Masterarbeit\PsychoPy\img_exp\M05_06.jpg,img_exp/M05_06.jpg,M05,6,6.6,,,,,0,227,227,183,,,,,,,,,,,,,15,2.75,M,,,,,1179.3654808998108,1180.049989938736,1180.049989938736,1180.049989938736,,2,w,21,2023-05-16_13h36.24.824,Gaze_Estimation_Final,2022.2.4,38.60420123903694,
C:\Users\calti\Documents\Masterarbeit\PsychoPy\img_exp\M07_04.jpg,img_exp/M07_04.jpg,M07,4,4.4,,,,,0,228,228,194,,,,,,,,,,,,,3,1.7128069400787354,M,,,,,1182.669490814209,1183.3549628257751,1183.3549628257751,1183.3549628257751,,2,w,21,2023-05-16_13h36.24.824,Gaze_Estimation_Final,2022.2.4,38.60420123903694,
C:\Users\calti\Documents\Masterarbeit\PsychoPy\img_exp\F04_02.jpg,img_exp/F04_02.jpg,F04,2,2.2,,,,,0,229,229,19,,,,,,,,,,,,,3,1.3080599308013916,F,,,,,1184.936506986618,1185.6197998523712,1185.6197998523712,1185.6197998523712,,2,w,21,2023-05-16_13h36.24.824,Gaze_Estimation_Final,2022.2.4,38.60420123903694,
C:\Users\calti\Documents\Masterarbeit\PsychoPy\img_exp\M06_06.jpg,img_exp/M06_06.jpg,M06,6,6.6,,,,,0,230,230,189,,,,,,,,,,,,,6,2.094102144241333,M,,,,,1186.7987267971039,1187.5051379203796,1187.5051379203796,1187.5051379203796,,2,w,21,2023-05-16_13h36.24.824,Gaze_Estimation_Final,2022.2.4,38.60420123903694,
C:\Users\calti\Documents\Masterarbeit\PsychoPy\img_exp\F02_04.jpg,img_exp/F02_04.jpg,F02,4,4.4,,,,,0,231,231,8,,,,,,,,,,,,,3,2.2766499519348145,F,,,,,1189.4467828273773,1190.1547029018402,1190.1547029018402,1190.1547029018402,,2,w,21,2023-05-16_13h36.24.824,Gaze_Estimation_Final,2022.2.4,38.60420123903694,
C:\Users\calti\Documents\Masterarbeit\PsychoPy\img_exp\M13_08.jpg,img_exp/M13_08.jpg,M13,8,8.8,,,,,0,232,232,232,,,,,,,,,,,,,33,3.5770881175994873,M,,,,,1192.2791328430176,1192.9839189052582,1192.9839189052582,1192.9839189052582,,2,w,21,2023-05-16_13h36.24.824,Gaze_Estimation_Final,2022.2.4,38.60420123903694,
C:\Users\calti\Documents\Masterarbeit\PsychoPy\img_exp\F04_12.jpg,img_exp/F04_12.jpg,F04,12,13.3,,,,,0,233,233,23,,,,,,,,,,,,,40,2.857525110244751,F,,,,,1196.4141318798065,1197.1150889396667,1197.1150889396667,1197.1150889396667,,2,w,21,2023-05-16_13h36.24.824,Gaze_Estimation_Final,2022.2.4,38.60420123903694,
C:\Users\calti\Documents\Masterarbeit\PsychoPy\img_exp\M06_04.jpg,img_exp/M06_04.jpg,M06,4,4.4,,,,,0,234,234,188,,,,,,,,,,,,,6,1.9818100929260254,M,,,,,1199.8255078792572,1200.5093460083008,1200.5093460083008,1200.5093460083008,,2,w,21,2023-05-16_13h36.24.824,Gaze_Estimation_Final,2022.2.4,38.60420123903694,
C:\Users\calti\Documents\Masterarbeit\PsychoPy\img_exp\M10_00.jpg,img_exp/M10_00.jpg,M10,0,0,,,,,0,235,235,210,,,,,,,,,,,,,3,1.7567949295043945,M,,,,,1202.3612728118896,1203.0447959899902,1203.0447959899902,1203.0447959899902,,2,w,21,2023-05-16_13h36.24.824,Gaze_Estimation_Final,2022.2.4,38.60420123903694,
C:\Users\calti\Documents\Masterarbeit\PsychoPy\img_exp\M10_02.jpg,img_exp/M10_02.jpg,M10,2,2.2,,,,,0,236,236,211,,,,,,,,,,,,,3,1.5363709926605225,M,,,,,1204.67111992836,1205.3550019264221,1205.3550019264221,1205.3550019264221,,2,w,21,2023-05-16_13h36.24.824,Gaze_Estimation_Final,2022.2.4,38.60420123903694,
C:\Users\calti\Documents\Masterarbeit\PsychoPy\img_exp\M04_02.jpg,img_exp/M04_02.jpg,M04,2,2.2,,,,,0,237,237,175,,,,,,,,,,,,,3,1.5816450119018555,M,,,,,1206.7626729011536,1207.44823884964,1207.44823884964,1207.44823884964,,2,w,21,2023-05-16_13h36.24.824,Gaze_Estimation_Final,2022.2.4,38.60420123903694,
C:\Users\calti\Documents\Masterarbeit\PsychoPy\img_exp\F07_12.jpg,img_exp/F07_12.jpg,F07,12,13.3,,,,,0,238,238,35,,,,,,,,,,,,,22,3.313356876373291,F,,,,,1208.8987908363342,1209.6054458618164,1209.6054458618164,1209.6054458618164,,2,w,21,2023-05-16_13h36.24.824,Gaze_Estimation_Final,2022.2.4,38.60420123903694,
C:\Users\calti\Documents\Masterarbeit\PsychoPy\img_exp\M10_04.jpg,img_exp/M10_04.jpg,M10,4,4.4,,,,,0,239,239,212,,,,,,,,,,,,,3,1.7316820621490479,M,,,,,1212.7677187919617,1213.470393896103,1213.470393896103,1213.470393896103,,2,w,21,2023-05-16_13h36.24.824,Gaze_Estimation_Final,2022.2.4,38.60420123903694,
C:\Users\calti\Documents\Masterarbeit\PsychoPy\img_exp\F09_02.jpg,img_exp/F09_02.jpg,F09,2,2.2,,,,,1,0,240,43,,,,,,,,,,,,,3,1.7691140174865723,F,,,,,1215.0535008907318,1215.7500429153442,1215.7500429153442,1215.7500429153442,,2,w,21,2023-05-16_13h36.24.824,Gaze_Estimation_Final,2022.2.4,38.60420123903694,
C:\Users\calti\Documents\Masterarbeit\PsychoPy\img_exp\F20_00.jpg,img_exp/F20_00.jpg,F20,0,0,,,,,1,1,241,108,,,,,,,,,,,,,3,1.4549131393432617,F,,,,,1217.3786318302155,1218.0753729343414,1218.0753729343414,1218.0753729343414,,2,w,21,2023-05-16_13h36.24.824,Gaze_Estimation_Final,2022.2.4,38.60420123903694,
C:\Users\calti\Documents\Masterarbeit\PsychoPy\img_exp\M07_02.jpg,img_exp/M07_02.jpg,M07,2,2.2,,,,,1,2,242,193,,,,,,,,,,,,,3,1.3090019226074219,M,,,,,1219.3869309425354,1220.0709338188171,1220.0709338188171,1220.0709338188171,,2,w,21,2023-05-16_13h36.24.824,Gaze_Estimation_Final,2022.2.4,38.60420123903694,
C:\Users\calti\Documents\Masterarbeit\PsychoPy\img_exp\M09_12.jpg,img_exp/M09_12.jpg,M09,12,13.3,,,,,1,3,243,209,,,,,,,,,,,,,25,2.8920629024505615,M,,,,,1221.2492098808289,1221.943738937378,1221.943738937378,1221.943738937378,,2,w,21,2023-05-16_13h36.24.824,Gaze_Estimation_Final,2022.2.4,38.60420123903694,
C:\Users\calti\Documents\Masterarbeit\PsychoPy\img_exp\F23_04.jpg,img_exp/F23_04.jpg,F23,4,4.4,,,,,1,4,244,128,,,,,,,,,,,,,3,1.5383529663085938,F,,,,,1224.6937019824982,1225.3828809261322,1225.3828809261322,1225.3828809261322,,2,w,21,2023-05-16_13h36.24.824,Gaze_Estimation_Final,2022.2.4,38.60420123903694,
C:\Users\calti\Documents\Masterarbeit\PsychoPy\img_exp\F11_06.jpg,img_exp/F11_06.jpg,F11,6,6.6,,,,,1,5,245,57,,,,,,,,,,,,,32,2.946261167526245,F,,,,,1226.7861278057098,1227.49089884758,1227.49089884758,1227.49089884758,,2,w,21,2023-05-16_13h36.24.824,Gaze_Estimation_Final,2022.2.4,38.60420123903694,
C:\Users\calti\Documents\Masterarbeit\PsychoPy\img_exp\F18_00.jpg,img_exp/F18_00.jpg,F18,0,0,,,,,1,6,246,96,,,,,,,,,,,,,10,4.591119050979614,F,,,,,1230.2870597839355,1230.9732649326324,1230.9732649326324,1230.9732649326324,,2,w,21,2023-05-16_13h36.24.824,Gaze_Estimation_Final,2022.2.4,38.60420123903694,
C:\Users\calti\Documents\Masterarbeit\PsychoPy\img_exp\F28_06.jpg,img_exp/F28_06.jpg,F28,6,6.6,,,,,1,7,247,153,,,,,,,,,,,,,24,19.978765964508057,F,,,,,1235.4335539340973,1236.1186509132385,1236.1186509132385,1236.1186509132385,,2,w,21,2023-05-16_13h36.24.824,Gaze_Estimation_Final,2022.2.4,38.60420123903694,
C:\Users\calti\Documents\Masterarbeit\PsychoPy\img_exp\F04_06.jpg,img_exp/F04_06.jpg,F04,6,6.6,,,,,1,8,248,21,,,,,,,,,,,,,3,2.009489059448242,F,,,,,1255.9676659107208,1256.6754369735718,1256.6754369735718,1256.6754369735718,,2,w,21,2023-05-16_13h36.24.824,Gaze_Estimation_Final,2022.2.4,38.60420123903694,
C:\Users\calti\Documents\Masterarbeit\PsychoPy\img_exp\F19_08.jpg,img_exp/F19_08.jpg,F19,8,8.8,,,,,1,9,249,106,,,,,,,,,,,,,30,2.7537050247192383,F,,,,,1258.5301978588104,1259.218901872635,1259.218901872635,1259.218901872635,,2,w,21,2023-05-16_13h36.24.824,Gaze_Estimation_Final,2022.2.4,38.60420123903694,
C:\Users\calti\Documents\Masterarbeit\PsychoPy\img_exp\M10_12.jpg,img_exp/M10_12.jpg,M10,12,13.3,,,,,1,10,250,215,,,,,,,,,,,,,34,2.435788869857788,M,,,,,1261.8405168056488,1262.5278809070587,1262.5278809070587,1262.5278809070587,,2,w,21,2023-05-16_13h36.24.824,Gaze_Estimation_Final,2022.2.4,38.60420123903694,
C:\Users\calti\Documents\Masterarbeit\PsychoPy\img_exp\M04_12.jpg,img_exp/M04_12.jpg,M04,12,13.3,,,,,1,11,251,179,,,,,,,,,,,,,44,2.346673011779785,M,,,,,1264.8332028388977,1265.5186638832092,1265.5186638832092,1265.5186638832092,,2,w,21,2023-05-16_13h36.24.824,Gaze_Estimation_Final,2022.2.4,38.60420123903694,
C:\Users\calti\Documents\Masterarbeit\PsychoPy\img_exp\F07_00.jpg,img_exp/F07_00.jpg,F07,0,0,,,,,1,12,252,30,,,,,,,,,,,,,3,1.6681909561157227,F,,,,,1267.7347149848938,1268.4195067882538,1268.4195067882538,1268.4195067882538,,2,w,21,2023-05-16_13h36.24.824,Gaze_Estimation_Final,2022.2.4,38.60420123903694,
C:\Users\calti\Documents\Masterarbeit\PsychoPy\img_exp\M01_08.jpg,img_exp/M01_08.jpg,M01,8,8.8,,,,,1,13,253,160,,,,,,,,,,,,,23,2.036983013153076,M,,,,,1269.9577069282532,1270.6453428268433,1270.6453428268433,1270.6453428268433,,2,w,21,2023-05-16_13h36.24.824,Gaze_Estimation_Final,2022.2.4,38.60420123903694,
C:\Users\calti\Documents\Masterarbeit\PsychoPy\img_exp\F14_02.jpg,img_exp/F14_02.jpg,F14,2,2.2,,,,,1,14,254,73,,,,,,,,,,,,,3,2.2052059173583984,F,,,,,1272.5504038333893,1273.2351999282837,1273.2351999282837,1273.2351999282837,,2,w,21,2023-05-16_13h36.24.824,Gaze_Estimation_Final,2022.2.4,38.60420123903694,
C:\Users\calti\Documents\Masterarbeit\PsychoPy\img_exp\F28_00.jpg,img_exp/F28_00.jpg,F28,0,0,,,,,1,15,255,150,,,,,,,,,,,,,3,1.154054880142212,F,,,,,1275.3098998069763,1276.015350818634,1276.015350818634,1276.015350818634,,2,w,21,2023-05-16_13h36.24.824,Gaze_Estimation_Final,2022.2.4,38.60420123903694,
C:\Users\calti\Documents\Masterarbeit\PsychoPy\img_exp\F18_00.jpg,img_exp/F18_00.jpg,F18,0,0,,,,,1,16,256,96,,,,,,,,,,,,,3,1.1762950420379639,F,,,,,1277.0168948173523,1277.7039518356323,1277.7039518356323,1277.7039518356323,,2,w,21,2023-05-16_13h36.24.824,Gaze_Estimation_Final,2022.2.4,38.60420123903694,
C:\Users\calti\Documents\Masterarbeit\PsychoPy\img_exp\M03_08.jpg,img_exp/M03_08.jpg,M03,8,8.8,,,,,1,17,257,172,,,,,,,,,,,,,14,2.3887970447540283,M,,,,,1278.7484788894653,1279.4326829910278,1279.4326829910278,1279.4326829910278,,2,w,21,2023-05-16_13h36.24.824,Gaze_Estimation_Final,2022.2.4,38.60420123903694,
C:\Users\calti\Documents\Masterarbeit\PsychoPy\img_exp\M09_00.jpg,img_exp/M09_00.jpg,M09,0,0,,,,,1,18,258,204,,,,,,,,,,,,,4,3.6886839866638184,M,,,,,1281.6920030117035,1282.37641787529,1282.37641787529,1282.37641787529,,2,w,21,2023-05-16_13h36.24.824,Gaze_Estimation_Final,2022.2.4,38.60420123903694,
C:\Users\calti\Documents\Masterarbeit\PsychoPy\img_exp\M07_06.jpg,img_exp/M07_06.jpg,M07,6,6.6,,,,,1,19,259,195,,,,,,,,,,,,,3,1.9381890296936035,M,,,,,1285.9354169368744,1286.6191408634186,1286.6191408634186,1286.6191408634186,,2,w,21,2023-05-16_13h36.24.824,Gaze_Estimation_Final,2022.2.4,38.60420123903694,
C:\Users\calti\Documents\Masterarbeit\PsychoPy\img_exp\F15_02.jpg,img_exp/F15_02.jpg,F15,2,2.2,,,,,1,20,260,79,,,,,,,,,,,,,3,1.9610540866851807,F,,,,,1288.4266428947449,1289.1345520019531,1289.1345520019531,1289.1345520019531,,2,w,21,2023-05-16_13h36.24.824,Gaze_Estimation_Final,2022.2.4,38.60420123903694,
C:\Users\calti\Documents\Masterarbeit\PsychoPy\img_exp\F17_08.jpg,img_exp/F17_08.jpg,F17,8,8.8,,,,,1,21,261,94,,,,,,,,,,,,,5,8.244985103607178,F,,,,,1290.9428298473358,1291.6564869880676,1291.6564869880676,1291.6564869880676,,2,w,21,2023-05-16_13h36.24.824,Gaze_Estimation_Final,2022.2.4,38.60420123903694,
C:\Users\calti\Documents\Masterarbeit\PsychoPy\img_exp\F18_02.jpg,img_exp/F18_02.jpg,F18,2,2.2,,,,,1,22,262,97,,,,,,,,,,,,,16,2.436537981033325,F,,,,,1299.7440898418427,1300.4314649105072,1300.4314649105072,1300.4314649105072,,2,w,21,2023-05-16_13h36.24.824,Gaze_Estimation_Final,2022.2.4,38.60420123903694,
C:\Users\calti\Documents\Masterarbeit\PsychoPy\img_exp\F05_12.jpg,img_exp/F05_12.jpg,F05,12,13.3,,,,,1,23,263,29,,,,,,,,,,,,,37,6.138689994812012,F,,,,,1302.7373988628387,1303.4443879127502,1303.4443879127502,1303.4443879127502,,2,w,21,2023-05-16_13h36.24.824,Gaze_Estimation_Final,2022.2.4,38.60420123903694,
C:\Users\calti\Documents\Masterarbeit\PsychoPy\img_exp\M05_12.jpg,img_exp/M05_12.jpg,M05,12,13.3,,,,,1,24,264,185,,,,,,,,,,,,,36,3.198031187057495,M,,,,,1309.4302279949188,1310.1132378578186,1310.1132378578186,1310.1132378578186,,2,w,21,2023-05-16_13h36.24.824,Gaze_Estimation_Final,2022.2.4,38.60420123903694,
C:\Users\calti\Documents\Masterarbeit\PsychoPy\img_exp\F20_08.jpg,img_exp/F20_08.jpg,F20,8,8.8,,,,,1,25,265,112,,,,,,,,,,,,,36,2.438228130340576,F,,,,,1313.1826798915863,1313.8715469837189,1313.8715469837189,1313.8715469837189,,2,w,21,2023-05-16_13h36.24.824,Gaze_Estimation_Final,2022.2.4,38.60420123903694,
C:\Users\calti\Documents\Masterarbeit\PsychoPy\img_exp\F11_08.jpg,img_exp/F11_08.jpg,F11,8,8.8,,,,,1,26,266,58,,,,,,,,,,,,,36,2.146095037460327,F,,,,,1316.1758239269257,1316.8847289085388,1316.8847289085388,1316.8847289085388,,2,w,21,2023-05-16_13h36.24.824,Gaze_Estimation_Final,2022.2.4,38.60420123903694,
C:\Users\calti\Documents\Masterarbeit\PsychoPy\img_exp\F24_00.jpg,img_exp/F24_00.jpg,F24,0,0,,,,,1,27,267,132,,,,,,,,,,,,,3,2.0048611164093018,F,,,,,1318.8765218257904,1319.584000825882,1319.584000825882,1319.584000825882,,2,w,21,2023-05-16_13h36.24.824,Gaze_Estimation_Final,2022.2.4,38.60420123903694,
C:\Users\calti\Documents\Masterarbeit\PsychoPy\img_exp\F24_00.jpg,img_exp/F24_00.jpg,F24,0,0,,,,,1,28,268,132,,,,,,,,,,,,,3,1.2116680145263672,F,,,,,1321.433585882187,1322.1098837852478,1322.1098837852478,1322.1098837852478,,2,w,21,2023-05-16_13h36.24.824,Gaze_Estimation_Final,2022.2.4,38.60420123903694,
C:\Users\calti\Documents\Masterarbeit\PsychoPy\img_exp\F23_06.jpg,img_exp/F23_06.jpg,F23,6,6.6,,,,,1,29,269,129,,,,,,,,,,,,,3,1.8233060836791992,F,,,,,1323.1986668109894,1323.9055998325348,1323.9055998325348,1323.9055998325348,,2,w,21,2023-05-16_13h36.24.824,Gaze_Estimation_Final,2022.2.4,38.60420123903694,
C:\Users\calti\Documents\Masterarbeit\PsychoPy\img_exp\M06_02.jpg,img_exp/M06_02.jpg,M06,2,2.2,,,,,1,30,270,187,,,,,,,,,,,,,3,1.7951910495758057,M,,,,,1325.5799369812012,1326.2569279670715,1326.2569279670715,1326.2569279670715,,2,w,21,2023-05-16_13h36.24.824,Gaze_Estimation_Final,2022.2.4,38.60420123903694,
C:\Users\calti\Documents\Masterarbeit\PsychoPy\img_exp\M13_12.jpg,img_exp/M13_12.jpg,M13,12,13.3,,,,,1,31,271,233,,,,,,,,,,,,,44,3.534022092819214,M,,,,,1327.929042816162,1328.6345088481903,1328.6345088481903,1328.6345088481903,,2,w,21,2023-05-16_13h36.24.824,Gaze_Estimation_Final,2022.2.4,38.60420123903694,
C:\Users\calti\Documents\Masterarbeit\PsychoPy\img_exp\F12_06.jpg,img_exp/F12_06.jpg,F12,6,6.6,,,,,1,32,272,63,,,,,,,,,,,,,3,1.8687739372253418,F,,,,,1332.0161349773407,1332.7224049568176,1332.7224049568176,1332.7224049568176,,2,w,21,2023-05-16_13h36.24.824,Gaze_Estimation_Final,2022.2.4,38.60420123903694,
C:\Users\calti\Documents\Masterarbeit\PsychoPy\img_exp\M10_04.jpg,img_exp/M10_04.jpg,M10,4,4.4,,,,,1,33,273,212,,,,,,,,,,,,,3,1.479421854019165,M,,,,,1334.4405498504639,1335.1181499958038,1335.1181499958038,1335.1181499958038,,2,w,21,2023-05-16_13h36.24.824,Gaze_Estimation_Final,2022.2.4,38.60420123903694,
C:\Users\calti\Documents\Masterarbeit\PsychoPy\img_exp\F12_12.jpg,img_exp/F12_12.jpg,F12,12,13.3,,,,,1,34,274,65,,,,,,,,,,,,,44,1.737454891204834,F,,,,,1336.4755268096924,1337.1805219650269,1337.1805219650269,1337.1805219650269,,2,w,21,2023-05-16_13h36.24.824,Gaze_Estimation_Final,2022.2.4,38.60420123903694,
C:\Users\calti\Documents\Masterarbeit\PsychoPy\img_exp\F17_06.jpg,img_exp/F17_06.jpg,F17,6,6.6,,,,,1,35,275,93,,,,,,,,,,,,,3,1.168705940246582,F,,,,,1338.7669808864594,1339.444014787674,1339.444014787674,1339.444014787674,,2,w,21,2023-05-16_13h36.24.824,Gaze_Estimation_Final,2022.2.4,38.60420123903694,
C:\Users\calti\Documents\Masterarbeit\PsychoPy\img_exp\F17_12.jpg,img_exp/F17_12.jpg,F17,12,13.3,,,,,1,36,276,95,,,,,,,,,,,,,44,2.313704013824463,F,,,,,1340.4892737865448,1341.184700012207,1341.184700012207,1341.184700012207,,2,w,21,2023-05-16_13h36.24.824,Gaze_Estimation_Final,2022.2.4,38.60420123903694,
C:\Users\calti\Documents\Masterarbeit\PsychoPy\img_exp\F05_02.jpg,img_exp/F05_02.jpg,F05,2,2.2,,,,,1,37,277,25,,,,,,,,,,,,,3,3.095093011856079,F,,,,,1343.3557748794556,1344.0311257839203,1344.0311257839203,1344.0311257839203,,2,w,21,2023-05-16_13h36.24.824,Gaze_Estimation_Final,2022.2.4,38.60420123903694,
C:\Users\calti\Documents\Masterarbeit\PsychoPy\img_exp\F19_04.jpg,img_exp/F19_04.jpg,F19,4,4.4,,,,,1,38,278,104,,,,,,,,,,,,,37,3.0606942176818848,F,,,,,1347.0045897960663,1347.6863238811493,1347.6863238811493,1347.6863238811493,,2,w,21,2023-05-16_13h36.24.824,Gaze_Estimation_Final,2022.2.4,38.60420123903694,
C:\Users\calti\Documents\Masterarbeit\PsychoPy\img_exp\M13_02.jpg,img_exp/M13_02.jpg,M13,2,2.2,,,,,1,39,279,229,,,,,,,,,,,,,3,1.825119972229004,M,,,,,1350.618502855301,1351.322655916214,1351.322655916214,1351.322655916214,,2,w,21,2023-05-16_13h36.24.824,Gaze_Estimation_Final,2022.2.4,38.60420123903694,
C:\Users\calti\Documents\Masterarbeit\PsychoPy\img_exp\F09_12.jpg,img_exp/F09_12.jpg,F09,12,13.3,,,,,1,40,280,47,,,,,,,,,,,,,49,3.8309011459350586,F,,,,,1352.9962229728699,1353.675291776657,1353.675291776657,1353.675291776657,,2,w,21,2023-05-16_13h36.24.824,Gaze_Estimation_Final,2022.2.4,38.60420123903694,
C:\Users\calti\Documents\Masterarbeit\PsychoPy\img_exp\M06_02.jpg,img_exp/M06_02.jpg,M06,2,2.2,,,,,1,41,281,187,,,,,,,,,,,,,3,1.9725120067596436,M,,,,,1357.379903793335,1358.0536608695984,1358.0536608695984,1358.0536608695984,,2,w,21,2023-05-16_13h36.24.824,Gaze_Estimation_Final,2022.2.4,38.60420123903694,
C:\Users\calti\Documents\Masterarbeit\PsychoPy\img_exp\M01_00.jpg,img_exp/M01_00.jpg,M01,0,0,,,,,1,42,282,156,,,,,,,,,,,,,3,1.4232218265533447,M,,,,,1359.9046127796173,1360.611965894699,1360.611965894699,1360.611965894699,,2,w,21,2023-05-16_13h36.24.824,Gaze_Estimation_Final,2022.2.4,38.60420123903694,
C:\Users\calti\Documents\Masterarbeit\PsychoPy\img_exp\F05_06.jpg,img_exp/F05_06.jpg,F05,6,6.6,,,,,1,43,283,27,,,,,,,,,,,,,28,3.0226399898529053,F,,,,,1361.8803269863129,1362.568175792694,1362.568175792694,1362.568175792694,,2,w,21,2023-05-16_13h36.24.824,Gaze_Estimation_Final,2022.2.4,38.60420123903694,
C:\Users\calti\Documents\Masterarbeit\PsychoPy\img_exp\M01_12.jpg,img_exp/M01_12.jpg,M01,12,13.3,,,,,1,44,284,161,,,,,,,,,,,,,67,4.693512916564941,M,,,,,1365.4563388824463,1366.1500329971313,1366.1500329971313,1366.1500329971313,,2,w,21,2023-05-16_13h36.24.824,Gaze_Estimation_Final,2022.2.4,38.60420123903694,
C:\Users\calti\Documents\Masterarbeit\PsychoPy\img_exp\F02_06.jpg,img_exp/F02_06.jpg,F02,6,6.6,,,,,1,45,285,9,,,,,,,,,,,,,31,4.000267028808594,F,,,,,1370.7014999389648,1371.3782618045807,1371.3782618045807,1371.3782618045807,,2,w,21,2023-05-16_13h36.24.824,Gaze_Estimation_Final,2022.2.4,38.60420123903694,
C:\Users\calti\Documents\Masterarbeit\PsychoPy\img_exp\F05_04.jpg,img_exp/F05_04.jpg,F05,4,4.4,,,,,1,46,286,26,,,,,,,,,,,,,23,2.2933218479156494,F,,,,,1375.2541799545288,1375.930998802185,1375.930998802185,1375.930998802185,,2,w,21,2023-05-16_13h36.24.824,Gaze_Estimation_Final,2022.2.4,38.60420123903694,
C:\Users\calti\Documents\Masterarbeit\PsychoPy\img_exp\F13_04.jpg,img_exp/F13_04.jpg,F13,4,4.4,,,,,1,47,287,68,,,,,,,,,,,,,3,2.0032761096954346,F,,,,,1378.1001908779144,1378.8052248954773,1378.8052248954773,1378.8052248954773,,2,w,21,2023-05-16_13h36.24.824,Gaze_Estimation_Final,2022.2.4,38.60420123903694,
C:\Users\calti\Documents\Masterarbeit\PsychoPy\img_exp\F18_04.jpg,img_exp/F18_04.jpg,F18,4,4.4,,,,,1,48,288,98,,,,,,,,,,,,,21,2.4294400215148926,F,,,,,1380.6571547985077,1381.33700299263,1381.33700299263,1381.33700299263,,2,w,21,2023-05-16_13h36.24.824,Gaze_Estimation_Final,2022.2.4,38.60420123903694,
C:\Users\calti\Documents\Masterarbeit\PsychoPy\img_exp\F17_06.jpg,img_exp/F17_06.jpg,F17,6,6.6,,,,,1,49,289,93,,,,,,,,,,,,,3,2.1547951698303223,F,,,,,1383.6394798755646,1384.3169989585876,1384.3169989585876,1384.3169989585876,,2,w,21,2023-05-16_13h36.24.824,Gaze_Estimation_Final,2022.2.4,38.60420123903694,
C:\Users\calti\Documents\Masterarbeit\PsychoPy\img_exp\F11_12.jpg,img_exp/F11_12.jpg,F11,12,13.3,,,,,1,50,290,59,,,,,,,,,,,,,45,2.6117990016937256,F,,,,,1386.3481760025024,1387.0279138088226,1387.0279138088226,1387.0279138088226,,2,w,21,2023-05-16_13h36.24.824,Gaze_Estimation_Final,2022.2.4,38.60420123903694,
C:\Users\calti\Documents\Masterarbeit\PsychoPy\img_exp\F26_06.jpg,img_exp/F26_06.jpg,F26,6,6.6,,,,,1,51,291,147,,,,,,,,,,,,,33,2.5448079109191895,F,,,,,1389.5132448673248,1390.2161359786987,1390.2161359786987,1390.2161359786987,,2,w,21,2023-05-16_13h36.24.824,Gaze_Estimation_Final,2022.2.4,38.60420123903694,
C:\Users\calti\Documents\Masterarbeit\PsychoPy\img_exp\F28_12.jpg,img_exp/F28_12.jpg,F28,12,13.3,,,,,1,52,292,155,,,,,,,,,,,,,48,4.091486930847168,F,,,,,1392.611517906189,1393.2900710105896,1393.2900710105896,1393.2900710105896,,2,w,21,2023-05-16_13h36.24.824,Gaze_Estimation_Final,2022.2.4,38.60420123903694,
C:\Users\calti\Documents\Masterarbeit\PsychoPy\img_exp\M08_02.jpg,img_exp/M08_02.jpg,M08,2,2.2,,,,,1,53,293,199,,,,,,,,,,,,,11,3.145390033721924,M,,,,,1397.2564330101013,1397.9338598251343,1397.9338598251343,1397.9338598251343,,2,w,21,2023-05-16_13h36.24.824,Gaze_Estimation_Final,2022.2.4,38.60420123903694,
C:\Users\calti\Documents\Masterarbeit\PsychoPy\img_exp\M06_02.jpg,img_exp/M06_02.jpg,M06,2,2.2,,,,,1,54,294,187,,,,,,,,,,,,,3,1.7066869735717773,M,,,,,1400.9565868377686,1401.6340548992157,1401.6340548992157,1401.6340548992157,,2,w,21,2023-05-16_13h36.24.824,Gaze_Estimation_Final,2022.2.4,38.60420123903694,
C:\Users\calti\Documents\Masterarbeit\PsychoPy\img_exp\M08_02.jpg,img_exp/M08_02.jpg,M08,2,2.2,,,,,1,55,295,199,,,,,,,,,,,,,10,3.012705087661743,M,,,,,1403.2165949344635,1403.8932559490204,1403.8932559490204,1403.8932559490204,,2,w,21,2023-05-16_13h36.24.824,Gaze_Estimation_Final,2022.2.4,38.60420123903694,
C:\Users\calti\Documents\Masterarbeit\PsychoPy\img_exp\F28_08.jpg,img_exp/F28_08.jpg,F28,8,8.8,,,,,1,56,296,154,,,,,,,,,,,,,21,2.5492100715637207,F,,,,,1406.7829239368439,1407.491040945053,1407.491040945053,1407.491040945053,,2,w,21,2023-05-16_13h36.24.824,Gaze_Estimation_Final,2022.2.4,38.60420123903694,
C:\Users\calti\Documents\Masterarbeit\PsychoPy\img_exp\M12_12.jpg,img_exp/M12_12.jpg,M12,12,13.3,,,,,1,57,297,227,,,,,,,,,,,,,40,3.0359978675842285,M,,,,,1409.885643005371,1410.58726978302,1410.58726978302,1410.58726978302,,2,w,21,2023-05-16_13h36.24.824,Gaze_Estimation_Final,2022.2.4,38.60420123903694,
C:\Users\calti\Documents\Masterarbeit\PsychoPy\img_exp\M05_04.jpg,img_exp/M05_04.jpg,M05,4,4.4,,,,,1,58,298,182,,,,,,,,,,,,,5,2.0852460861206055,M,,,,,1413.4759118556976,1414.1745369434357,1414.1745369434357,1414.1745369434357,,2,w,21,2023-05-16_13h36.24.824,Gaze_Estimation_Final,2022.2.4,38.60420123903694,
C:\Users\calti\Documents\Masterarbeit\PsychoPy\img_exp\F08_00.jpg,img_exp/F08_00.jpg,F08,0,0,,,,,1,59,299,36,,,,,,,,,,,,,3,1.0553829669952393,F,,,,,1416.1155347824097,1416.8124408721924,1416.8124408721924,1416.8124408721924,,2,w,21,2023-05-16_13h36.24.824,Gaze_Estimation_Final,2022.2.4,38.60420123903694,
C:\Users\calti\Documents\Masterarbeit\PsychoPy\img_exp\F04_08.jpg,img_exp/F04_08.jpg,F04,8,8.8,,,,,1,60,300,22,,,,,,,,,,,,,3,1.121060848236084,F,,,,,1417.7229177951813,1418.3985199928284,1418.3985199928284,1418.3985199928284,,2,w,21,2023-05-16_13h36.24.824,Gaze_Estimation_Final,2022.2.4,38.60420123903694,
C:\Users\calti\Documents\Masterarbeit\PsychoPy\img_exp\F25_06.jpg,img_exp/F25_06.jpg,F25,6,6.6,,,,,1,61,301,141,,,,,,,,,,,,,3,1.5104339122772217,F,,,,,1419.3968648910522,1420.1029288768768,1420.1029288768768,1420.1029288768768,,2,w,21,2023-05-16_13h36.24.824,Gaze_Estimation_Final,2022.2.4,38.60420123903694,
C:\Users\calti\Documents\Masterarbeit\PsychoPy\img_exp\F22_06.jpg,img_exp/F22_06.jpg,F22,6,6.6,,,,,1,62,302,123,,,,,,,,,,,,,3,2.0255279541015625,F,,,,,1421.460970878601,1422.1413838863373,1422.1413838863373,1422.1413838863373,,2,w,21,2023-05-16_13h36.24.824,Gaze_Estimation_Final,2022.2.4,38.60420123903694,
C:\Users\calti\Documents\Masterarbeit\PsychoPy\img_exp\F08_12.jpg,img_exp/F08_12.jpg,F08,12,13.3,,,,,1,63,303,41,,,,,,,,,,,,,36,4.494196176528931,F,,,,,1424.0405519008636,1424.7181859016418,1424.7181859016418,1424.7181859016418,,2,w,21,2023-05-16_13h36.24.824,Gaze_Estimation_Final,2022.2.4,38.60420123903694,
C:\Users\calti\Documents\Masterarbeit\PsychoPy\img_exp\F24_04.jpg,img_exp/F24_04.jpg,F24,4,4.4,,,,,1,64,304,134,,,,,,,,,,,,,36,8.574381828308105,F,,,,,1429.0880029201508,1429.764310836792,1429.764310836792,1429.764310836792,,2,w,21,2023-05-16_13h36.24.824,Gaze_Estimation_Final,2022.2.4,38.60420123903694,
C:\Users\calti\Documents\Masterarbeit\PsychoPy\img_exp\M12_08.jpg,img_exp/M12_08.jpg,M12,8,8.8,,,,,1,65,305,226,,,,,,,,,,,,,30,2.785799026489258,M,,,,,1438.214980840683,1438.8903498649597,1438.8903498649597,1438.8903498649597,,2,w,21,2023-05-16_13h36.24.824,Gaze_Estimation_Final,2022.2.4,38.60420123903694,
C:\Users\calti\Documents\Masterarbeit\PsychoPy\img_exp\F20_12.jpg,img_exp/F20_12.jpg,F20,12,13.3,,,,,1,66,306,113,,,,,,,,,,,,,78,4.378870010375977,F,,,,,1441.5548717975616,1442.2515499591827,1442.2515499591827,1442.2515499591827,,2,w,21,2023-05-16_13h36.24.824,Gaze_Estimation_Final,2022.2.4,38.60420123903694,
C:\Users\calti\Documents\Masterarbeit\PsychoPy\img_exp\F28_08.jpg,img_exp/F28_08.jpg,F28,8,8.8,,,,,1,67,307,154,,,,,,,,,,,,,46,4.944732189178467,F,,,,,1446.4855048656464,1447.1616158485413,1447.1616158485413,1447.1616158485413,,2,w,21,2023-05-16_13h36.24.824,Gaze_Estimation_Final,2022.2.4,38.60420123903694,
C:\Users\calti\Documents\Masterarbeit\PsychoPy\img_exp\F07_08.jpg,img_exp/F07_08.jpg,F07,8,8.8,,,,,1,68,308,34,,,,,,,,,,,,,50,15.675131797790527,F,,,,,1451.982584953308,1452.66148686409,1452.66148686409,1452.66148686409,,2,w,21,2023-05-16_13h36.24.824,Gaze_Estimation_Final,2022.2.4,38.60420123903694,
C:\Users\calti\Documents\Masterarbeit\PsychoPy\img_exp\M14_06.jpg,img_exp/M14_06.jpg,M14,6,6.6,,,,,1,69,309,237,,,,,,,,,,,,,56,7.791559934616089,M,,,,,1468.2128598690033,1468.9116427898407,1468.9116427898407,1468.9116427898407,,2,w,21,2023-05-16_13h36.24.824,Gaze_Estimation_Final,2022.2.4,38.60420123903694,
C:\Users\calti\Documents\Masterarbeit\PsychoPy\img_exp\F22_06.jpg,img_exp/F22_06.jpg,F22,6,6.6,,,,,1,70,310,123,,,,,,,,,,,,,3,2.920186996459961,F,,,,,1476.5574979782104,1477.2370510101318,1477.2370510101318,1477.2370510101318,,2,w,21,2023-05-16_13h36.24.824,Gaze_Estimation_Final,2022.2.4,38.60420123903694,
C:\Users\calti\Documents\Masterarbeit\PsychoPy\img_exp\M11_08.jpg,img_exp/M11_08.jpg,M11,8,8.8,,,,,1,71,311,220,,,,,,,,,,,,,3,3.9026410579681396,M,,,,,1480.0309689044952,1480.7047729492188,1480.7047729492188,1480.7047729492188,,2,w,21,2023-05-16_13h36.24.824,Gaze_Estimation_Final,2022.2.4,38.60420123903694,
C:\Users\calti\Documents\Masterarbeit\PsychoPy\img_exp\F01_02.jpg,img_exp/F01_02.jpg,F01,2,2.2,,,,,1,72,312,1,,,,,,,,,,,,,3,2.7410221099853516,F,,,,,1484.4861769676208,1485.163745880127,1485.163745880127,1485.163745880127,,2,w,21,2023-05-16_13h36.24.824,Gaze_Estimation_Final,2022.2.4,38.60420123903694,
